Trial_order;Subject_ID;Trial_ID;Accuracy;RT;Lexicality;NoS;NoS_cat;Frequency;Frequency_cat;Stimuli;Word_length
14;s1;t1;1;872;word;1;few;302;LF;[APAT;5
178;s1;t2;1;541;word;1;few;320;LF;MR@NJA;6
61;s1;t3;1;721;word;1;few;391;LF;CESTA;5
55;s1;t4;1;570;word;1;few;414;HF;^E@NJA;6
69;s1;t5;1;581;word;1;few;424;HF;GRANJE;6
63;s1;t6;1;501;word;1;few;448;HF;DE^AK;5
62;s1;t7;1;491;word;1;few;453;HF;APRIL;5
76;s1;t8;1;501;word;1;few;720;HF;OSMEH;5
172;s1;t9;1;550;word;1;few;786;HF;CVE]E;5
122;s1;t10;1;591;word;1;few;1085;HF;LI[]E;5
97;s1;t11;1;631;word;2;few;254;LF;EKIPA;5
169;s1;t12;1;531;word;2;few;272;LF;BA[TA;5
42;s1;t13;1;691;word;2;few;317;LF;RADIO;5
83;s1;t14;1;541;word;2;few;320;LF;PESAK;5
19;s1;t15;1;591;word;2;few;374;LF;USPEH;5
56;s1;t16;1;791;word;2;few;422;HF;USLOV;5
152;s1;t17;1;511;word;2;few;894;HF;DINAR;5
36;s1;t18;1;701;word;2;few;1052;HF;ODBOR;5
155;s1;t19;1;711;word;2;few;1209;HF;SENKA;5
88;s1;t20;1;611;word;2;few;1452;HF;VLADA;5
127;s1;t21;1;591;word;3;few;334;LF;SUTON;5
68;s1;t22;1;541;word;3;few;335;LF;PU[KA;5
129;s1;t23;1;491;word;3;few;335;LF;SELJAK;6
50;s1;t24;1;570;word;3;few;348;LF;SPRAT;5
91;s1;t25;1;531;word;3;few;414;HF;MINUT;5
65;s1;t26;1;541;word;3;few;430;HF;VIDIK;5
141;s1;t27;1;520;word;3;few;631;HF;MAGLA;5
148;s1;t28;1;510;word;3;few;657;HF;MIRIS;5
101;s1;t29;1;531;word;3;few;1470;HF;TRAVA;5
54;s1;t30;1;530;word;3;few;1847;HF;ULICA;5
77;s1;t31;1;501;word;4;medium;278;LF;ZANOS;5
132;s1;t32;1;551;word;4;medium;280;LF;OBZIR;5
98;s1;t33;1;531;word;4;medium;295;LF;PA@NJA;6
51;s1;t34;1;540;word;4;medium;314;LF;SVEST;5
165;s1;t35;1;571;word;4;medium;328;LF;POTOK;5
53;s1;t36;1;571;word;4;medium;375;LF;ZVONO;5
177;s1;t37;1;470;word;4;medium;484;HF;POMO];5
149;s1;t38;1;471;word;4;medium;831;HF;GRUDI;5
58;s1;t39;1;521;word;4;medium;1256;HF;GRANA;5
128;s1;t40;1;581;word;4;medium;2274;HF;VETAR;5
114;s1;t41;1;621;word;5;medium;262;LF;KOMAD;5
23;s1;t42;1;661;word;5;medium;270;LF;LOPTA;5
117;s1;t43;1;561;word;5;medium;281;LF;IGRA^;5
147;s1;t44;1;550;word;5;medium;409;HF;PRI^A;5
107;s1;t45;1;641;word;5;medium;517;HF;SAVEZ;5
80;s1;t46;1;621;word;5;medium;521;HF;GRUPA;5
180;s1;t47;1;451;word;5;medium;828;HF;JESEN;5
173;s1;t48;1;570;word;5;medium;981;HF;KORAK;5
109;s1;t49;1;541;word;5;medium;1011;HF;SRE]A;5
46;s1;t50;1;822;word;5;medium;1671;HF;PTICA;5
48;s1;t51;1;510;word;6;medium;148;LF;ORGAN;5
159;s1;t52;1;591;word;6;medium;164;LF;FORMA;5
118;s1;t53;1;751;word;6;medium;179;LF;BLATO;5
4;s1;t54;1;621;word;6;medium;184;LF;KLUPA;5
66;s1;t55;1;661;word;6;medium;216;LF;PONOR;5
168;s1;t56;1;972;word;6;medium;255;LF;PODNE;5
49;s1;t57;1;590;word;6;medium;318;LF;STENA;5
170;s1;t58;1;500;word;6;medium;463;HF;IZVOR;5
6;s1;t59;1;471;word;6;medium;2365;HF;LJUBAV;6
131;s1;t60;1;521;word;6;medium;2626;HF;PESMA;5
24;s1;t61;1;491;word;7;many;118;LF;MOMAK;5
13;s1;t62;1;581;word;7;many;129;LF;BLAGO;5
1;s1;t63;1;931;word;7;many;134;LF;OSNOV;5
21;s1;t64;1;591;word;7;many;193;LF;STADO;5
75;s1;t65;1;541;word;7;many;326;LF;SLAVA;5
140;s1;t66;1;480;word;7;many;649;HF;KNJIGA;6
151;s1;t67;1;471;word;7;many;885;HF;[KOLA;5
89;s1;t68;1;550;word;7;many;1023;HF;BORBA;5
45;s1;t69;1;571;word;7;many;1565;HF;OBLAK;5
153;s1;t70;1;471;word;7;many;2984;HF;SUNCE;5
57;s1;t72;1;551;word;8;many;116;LF;KONAC;5
16;s1;t73;1;671;word;8;many;135;LF;POTEZ;5
130;s1;t74;1;491;word;8;many;159;LF;JUNAK;5
29;s1;t75;1;481;word;8;many;212;LF;LANAC;5
5;s1;t76;1;601;word;8;many;380;LF;ZLATO;5
139;s1;t77;1;591;word;8;many;416;HF;PISMO;5
163;s1;t78;1;791;word;8;many;431;HF;ZAKON;5
73;s1;t79;1;641;word;8;many;1460;HF;SNAGA;5
31;s1;t80;1;610;word;8;many;3952;HF;ZEMLJA;6
144;s1;t81;1;591;word;9;many;161;LF;KLASA;5
110;s1;t82;1;471;word;9;many;168;LF;PLO^A;5
28;s1;t83;1;591;word;9;many;307;LF;KARTA;5
167;s1;t84;1;511;word;9;many;328;LF;MRE@A;5
115;s1;t85;1;571;word;9;many;399;LF;STANJE;6
47;s1;t86;1;500;word;9;many;403;HF;GOVOR;5
174;s1;t87;1;460;word;9;many;999;HF;POSAO;5
156;s1;t88;1;511;word;9;many;1180;HF;MESTO;5
133;s1;t89;1;521;word;9;many;1620;HF;NAROD;5
142;s1;t90;1;570;word;9;many;190;LF;TA^KA;5
98;s10;t1;1;731;word;1;few;302;LF;[APAT;5
54;s10;t2;1;922;word;1;few;320;LF;MR@NJA;6
26;s10;t3;1;972;word;1;few;391;LF;CESTA;5
156;s10;t4;1;711;word;1;few;414;HF;^E@NJA;6
7;s10;t5;1;882;word;1;few;424;HF;GRANJE;6
20;s10;t6;1;621;word;1;few;448;HF;DE^AK;5
108;s10;t7;1;1261;word;1;few;453;HF;APRIL;5
150;s10;t8;1;660;word;1;few;720;HF;OSMEH;5
175;s10;t9;1;982;word;1;few;786;HF;CVE]E;5
96;s10;t10;1;681;word;1;few;1085;HF;LI[]E;5
88;s10;t11;1;1002;word;2;few;254;LF;EKIPA;5
89;s10;t12;1;631;word;2;few;272;LF;BA[TA;5
122;s10;t13;1;972;word;2;few;317;LF;RADIO;5
132;s10;t14;1;621;word;2;few;320;LF;PESAK;5
91;s10;t15;1;581;word;2;few;374;LF;USPEH;5
112;s10;t16;1;681;word;2;few;422;HF;USLOV;5
46;s10;t17;1;792;word;2;few;894;HF;DINAR;5
130;s10;t18;1;881;word;2;few;1052;HF;ODBOR;5
171;s10;t19;1;861;word;2;few;1209;HF;SENKA;5
126;s10;t20;1;881;word;2;few;1452;HF;VLADA;5
95;s10;t21;1;1011;word;3;few;334;LF;SUTON;5
131;s10;t22;1;630;word;3;few;335;LF;PU[KA;5
79;s10;t23;1;942;word;3;few;335;LF;SELJAK;6
110;s10;t24;1;802;word;3;few;348;LF;SPRAT;5
163;s10;t25;1;601;word;3;few;414;HF;MINUT;5
2;s10;t26;1;742;word;3;few;430;HF;VIDIK;5
64;s10;t27;1;601;word;3;few;631;HF;MAGLA;5
87;s10;t28;1;821;word;3;few;657;HF;MIRIS;5
38;s10;t29;1;631;word;3;few;1470;HF;TRAVA;5
27;s10;t30;1;671;word;3;few;1847;HF;ULICA;5
16;s10;t31;1;691;word;4;medium;278;LF;ZANOS;5
120;s10;t32;1;1011;word;4;medium;280;LF;OBZIR;5
116;s10;t33;1;631;word;4;medium;295;LF;PA@NJA;6
152;s10;t34;1;701;word;4;medium;314;LF;SVEST;5
140;s10;t35;1;651;word;4;medium;328;LF;POTOK;5
136;s10;t36;1;711;word;4;medium;375;LF;ZVONO;5
111;s10;t37;1;681;word;4;medium;484;HF;POMO];5
114;s10;t38;1;671;word;4;medium;831;HF;GRUDI;5
66;s10;t39;1;691;word;4;medium;1256;HF;GRANA;5
43;s10;t40;1;651;word;4;medium;2274;HF;VETAR;5
167;s10;t41;1;771;word;5;medium;262;LF;KOMAD;5
176;s10;t42;1;641;word;5;medium;270;LF;LOPTA;5
8;s10;t43;1;611;word;5;medium;281;LF;IGRA^;5
90;s10;t44;1;661;word;5;medium;409;HF;PRI^A;5
107;s10;t45;1;751;word;5;medium;517;HF;SAVEZ;5
119;s10;t46;1;821;word;5;medium;521;HF;GRUPA;5
178;s10;t47;1;651;word;5;medium;828;HF;JESEN;5
65;s10;t48;1;771;word;5;medium;981;HF;KORAK;5
104;s10;t49;1;681;word;5;medium;1011;HF;SRE]A;5
4;s10;t50;1;581;word;5;medium;1671;HF;PTICA;5
21;s10;t51;1;701;word;6;medium;148;LF;ORGAN;5
61;s10;t52;1;962;word;6;medium;164;LF;FORMA;5
37;s10;t53;1;821;word;6;medium;179;LF;BLATO;5
149;s10;t54;1;600;word;6;medium;184;LF;KLUPA;5
63;s10;t55;1;1262;word;6;medium;216;LF;PONOR;5
73;s10;t56;1;651;word;6;medium;255;LF;PODNE;5
76;s10;t57;1;851;word;6;medium;318;LF;STENA;5
117;s10;t58;1;802;word;6;medium;463;HF;IZVOR;5
154;s10;t59;1;611;word;6;medium;2365;HF;LJUBAV;6
17;s10;t60;1;590;word;6;medium;2626;HF;PESMA;5
75;s10;t61;1;1102;word;7;many;118;LF;MOMAK;5
18;s10;t62;1;871;word;7;many;129;LF;BLAGO;5
39;s10;t63;1;971;word;7;many;134;LF;OSNOV;5
82;s10;t64;1;751;word;7;many;193;LF;STADO;5
11;s10;t66;1;771;word;7;many;649;HF;KNJIGA;6
1;s10;t67;1;1021;word;7;many;885;HF;[KOLA;5
24;s10;t68;1;881;word;7;many;1023;HF;BORBA;5
158;s10;t69;1;621;word;7;many;1565;HF;OBLAK;5
181;s10;t70;1;711;word;7;many;2984;HF;SUNCE;5
177;s10;t71;1;1312;word;8;many;111;LF;REBRO;5
44;s10;t72;1;651;word;8;many;116;LF;KONAC;5
162;s10;t73;1;611;word;8;many;135;LF;POTEZ;5
160;s10;t74;1;611;word;8;many;159;LF;JUNAK;5
41;s10;t75;1;891;word;8;many;212;LF;LANAC;5
134;s10;t76;1;711;word;8;many;380;LF;ZLATO;5
77;s10;t77;1;641;word;8;many;416;HF;PISMO;5
121;s10;t78;1;691;word;8;many;431;HF;ZAKON;5
83;s10;t79;1;691;word;8;many;1460;HF;SNAGA;5
155;s10;t80;1;601;word;8;many;3952;HF;ZEMLJA;6
141;s10;t81;1;651;word;9;many;161;LF;KLASA;5
71;s10;t82;1;801;word;9;many;168;LF;PLO^A;5
147;s10;t83;1;751;word;9;many;307;LF;KARTA;5
59;s10;t84;1;721;word;9;many;328;LF;MRE@A;5
138;s10;t85;1;721;word;9;many;399;LF;STANJE;6
10;s10;t86;1;631;word;9;many;403;HF;GOVOR;5
93;s10;t87;1;711;word;9;many;999;HF;POSAO;5
135;s10;t88;1;561;word;9;many;1180;HF;MESTO;5
157;s10;t89;1;841;word;9;many;1620;HF;NAROD;5
72;s10;t90;1;902;word;9;many;190;LF;TA^KA;5
98;s11;t1;1;791;word;1;few;302;LF;[APAT;5
64;s11;t2;1;591;word;1;few;320;LF;MR@NJA;6
110;s11;t3;1;661;word;1;few;391;LF;CESTA;5
71;s11;t4;1;651;word;1;few;414;HF;^E@NJA;6
116;s11;t5;1;1071;word;1;few;424;HF;GRANJE;6
65;s11;t6;1;531;word;1;few;448;HF;DE^AK;5
1;s11;t7;1;541;word;1;few;453;HF;APRIL;5
107;s11;t8;1;701;word;1;few;720;HF;OSMEH;5
10;s11;t9;1;611;word;1;few;786;HF;CVE]E;5
130;s11;t10;1;731;word;1;few;1085;HF;LI[]E;5
69;s11;t11;1;561;word;2;few;254;LF;EKIPA;5
114;s11;t12;1;661;word;2;few;272;LF;BA[TA;5
48;s11;t13;1;631;word;2;few;317;LF;RADIO;5
23;s11;t14;1;631;word;2;few;320;LF;PESAK;5
174;s11;t15;1;511;word;2;few;374;LF;USPEH;5
46;s11;t16;1;801;word;2;few;422;HF;USLOV;5
89;s11;t17;1;751;word;2;few;894;HF;DINAR;5
97;s11;t18;1;541;word;2;few;1052;HF;ODBOR;5
181;s11;t19;1;641;word;2;few;1209;HF;SENKA;5
103;s11;t20;1;842;word;2;few;1452;HF;VLADA;5
96;s11;t21;1;922;word;3;few;334;LF;SUTON;5
61;s11;t22;1;651;word;3;few;335;LF;PU[KA;5
15;s11;t23;1;731;word;3;few;335;LF;SELJAK;6
168;s11;t24;1;631;word;3;few;348;LF;SPRAT;5
105;s11;t25;1;741;word;3;few;414;HF;MINUT;5
104;s11;t26;1;721;word;3;few;430;HF;VIDIK;5
51;s11;t27;1;531;word;3;few;631;HF;MAGLA;5
156;s11;t28;1;881;word;3;few;657;HF;MIRIS;5
164;s11;t29;1;661;word;3;few;1470;HF;TRAVA;5
102;s11;t30;1;681;word;3;few;1847;HF;ULICA;5
41;s11;t31;1;531;word;4;medium;278;LF;ZANOS;5
58;s11;t32;1;832;word;4;medium;280;LF;OBZIR;5
178;s11;t33;1;601;word;4;medium;295;LF;PA@NJA;6
50;s11;t34;1;851;word;4;medium;314;LF;SVEST;5
47;s11;t35;1;1072;word;4;medium;328;LF;POTOK;5
123;s11;t36;1;841;word;4;medium;375;LF;ZVONO;5
150;s11;t37;1;991;word;4;medium;484;HF;POMO];5
82;s11;t38;1;851;word;4;medium;831;HF;GRUDI;5
40;s11;t39;1;861;word;4;medium;1256;HF;GRANA;5
153;s11;t40;1;551;word;4;medium;2274;HF;VETAR;5
100;s11;t41;1;691;word;5;medium;262;LF;KOMAD;5
112;s11;t42;1;761;word;5;medium;270;LF;LOPTA;5
115;s11;t43;1;621;word;5;medium;281;LF;IGRA^;5
32;s11;t44;1;581;word;5;medium;409;HF;PRI^A;5
87;s11;t45;1;631;word;5;medium;517;HF;SAVEZ;5
8;s11;t46;1;671;word;5;medium;521;HF;GRUPA;5
148;s11;t47;1;681;word;5;medium;828;HF;JESEN;5
108;s11;t48;1;601;word;5;medium;981;HF;KORAK;5
63;s11;t49;1;571;word;5;medium;1011;HF;SRE]A;5
36;s11;t50;1;601;word;5;medium;1671;HF;PTICA;5
136;s11;t51;1;551;word;6;medium;148;LF;ORGAN;5
72;s11;t52;1;741;word;6;medium;164;LF;FORMA;5
27;s11;t53;1;831;word;6;medium;179;LF;BLATO;5
20;s11;t54;1;591;word;6;medium;184;LF;KLUPA;5
99;s11;t55;1;511;word;6;medium;216;LF;PONOR;5
66;s11;t56;1;551;word;6;medium;255;LF;PODNE;5
11;s11;t57;1;601;word;6;medium;318;LF;STENA;5
170;s11;t58;1;761;word;6;medium;463;HF;IZVOR;5
147;s11;t59;1;631;word;6;medium;2365;HF;LJUBAV;6
2;s11;t60;1;461;word;6;medium;2626;HF;PESMA;5
109;s11;t61;1;571;word;7;many;118;LF;MOMAK;5
151;s11;t62;1;832;word;7;many;129;LF;BLAGO;5
175;s11;t63;1;771;word;7;many;134;LF;OSNOV;5
24;s11;t64;1;792;word;7;many;193;LF;STADO;5
34;s11;t65;1;721;word;7;many;326;LF;SLAVA;5
60;s11;t66;1;621;word;7;many;649;HF;KNJIGA;6
57;s11;t67;1;701;word;7;many;885;HF;[KOLA;5
91;s11;t68;1;781;word;7;many;1023;HF;BORBA;5
31;s11;t69;1;641;word;7;many;1565;HF;OBLAK;5
73;s11;t70;1;621;word;7;many;2984;HF;SUNCE;5
121;s11;t71;1;892;word;8;many;111;LF;REBRO;5
88;s11;t72;1;651;word;8;many;116;LF;KONAC;5
118;s11;t73;1;581;word;8;many;135;LF;POTEZ;5
133;s11;t74;1;751;word;8;many;159;LF;JUNAK;5
146;s11;t75;1;711;word;8;many;212;LF;LANAC;5
25;s11;t76;1;621;word;8;many;380;LF;ZLATO;5
17;s11;t77;1;772;word;8;many;416;HF;PISMO;5
172;s11;t78;1;571;word;8;many;431;HF;ZAKON;5
152;s11;t79;1;681;word;8;many;1460;HF;SNAGA;5
161;s11;t80;1;761;word;8;many;3952;HF;ZEMLJA;6
78;s11;t81;1;691;word;9;many;161;LF;KLASA;5
81;s11;t82;1;621;word;9;many;168;LF;PLO^A;5
33;s11;t83;1;591;word;9;many;307;LF;KARTA;5
68;s11;t84;1;591;word;9;many;328;LF;MRE@A;5
139;s11;t85;1;661;word;9;many;399;LF;STANJE;6
39;s11;t86;1;570;word;9;many;403;HF;GOVOR;5
93;s11;t87;1;621;word;9;many;999;HF;POSAO;5
135;s11;t88;1;591;word;9;many;1180;HF;MESTO;5
62;s11;t89;1;571;word;9;many;1620;HF;NAROD;5
143;s11;t90;1;731;word;9;many;190;LF;TA^KA;5
92;s12;t1;1;861;word;1;few;302;LF;[APAT;5
140;s12;t2;1;470;word;1;few;320;LF;MR@NJA;6
143;s12;t3;1;821;word;1;few;391;LF;CESTA;5
76;s12;t4;1;871;word;1;few;414;HF;^E@NJA;6
58;s12;t5;1;1092;word;1;few;424;HF;GRANJE;6
28;s12;t6;1;601;word;1;few;448;HF;DE^AK;5
175;s12;t7;1;551;word;1;few;453;HF;APRIL;5
104;s12;t8;1;631;word;1;few;720;HF;OSMEH;5
170;s12;t9;1;621;word;1;few;786;HF;CVE]E;5
139;s12;t10;1;580;word;1;few;1085;HF;LI[]E;5
21;s12;t11;1;511;word;2;few;254;LF;EKIPA;5
69;s12;t12;1;580;word;2;few;272;LF;BA[TA;5
13;s12;t13;1;641;word;2;few;317;LF;RADIO;5
158;s12;t14;1;631;word;2;few;320;LF;PESAK;5
81;s12;t15;1;531;word;2;few;374;LF;USPEH;5
134;s12;t16;1;641;word;2;few;422;HF;USLOV;5
97;s12;t17;1;591;word;2;few;894;HF;DINAR;5
50;s12;t18;1;731;word;2;few;1052;HF;ODBOR;5
152;s12;t19;1;551;word;2;few;1209;HF;SENKA;5
17;s12;t20;1;651;word;2;few;1452;HF;VLADA;5
131;s12;t21;1;600;word;3;few;334;LF;SUTON;5
126;s12;t22;1;852;word;3;few;335;LF;PU[KA;5
107;s12;t23;1;621;word;3;few;335;LF;SELJAK;6
179;s12;t24;1;1021;word;3;few;348;LF;SPRAT;5
46;s12;t25;1;521;word;3;few;414;HF;MINUT;5
31;s12;t26;1;711;word;3;few;430;HF;VIDIK;5
42;s12;t27;1;501;word;3;few;631;HF;MAGLA;5
87;s12;t28;1;541;word;3;few;657;HF;MIRIS;5
176;s12;t29;1;491;word;3;few;1470;HF;TRAVA;5
106;s12;t30;1;501;word;3;few;1847;HF;ULICA;5
47;s12;t31;1;681;word;4;medium;278;LF;ZANOS;5
93;s12;t32;1;521;word;4;medium;280;LF;OBZIR;5
62;s12;t33;1;520;word;4;medium;295;LF;PA@NJA;6
73;s12;t34;1;530;word;4;medium;314;LF;SVEST;5
71;s12;t35;1;531;word;4;medium;328;LF;POTOK;5
36;s12;t36;1;571;word;4;medium;375;LF;ZVONO;5
23;s12;t37;1;541;word;4;medium;484;HF;POMO];5
123;s12;t38;1;691;word;4;medium;831;HF;GRUDI;5
14;s12;t39;1;621;word;4;medium;1256;HF;GRANA;5
111;s12;t40;1;631;word;4;medium;2274;HF;VETAR;5
7;s12;t41;1;531;word;5;medium;262;LF;KOMAD;5
55;s12;t42;1;570;word;5;medium;270;LF;LOPTA;5
118;s12;t43;1;601;word;5;medium;281;LF;IGRA^;5
24;s12;t44;1;541;word;5;medium;409;HF;PRI^A;5
64;s12;t45;1;621;word;5;medium;517;HF;SAVEZ;5
30;s12;t46;1;561;word;5;medium;521;HF;GRUPA;5
90;s12;t47;1;591;word;5;medium;828;HF;JESEN;5
25;s12;t48;1;611;word;5;medium;981;HF;KORAK;5
160;s12;t49;1;460;word;5;medium;1011;HF;SRE]A;5
171;s12;t50;1;531;word;5;medium;1671;HF;PTICA;5
147;s12;t51;1;451;word;6;medium;148;LF;ORGAN;5
120;s12;t52;1;641;word;6;medium;164;LF;FORMA;5
110;s12;t53;1;781;word;6;medium;179;LF;BLATO;5
67;s12;t54;1;581;word;6;medium;184;LF;KLUPA;5
2;s12;t55;1;851;word;6;medium;216;LF;PONOR;5
3;s12;t56;1;761;word;6;medium;255;LF;PODNE;5
148;s12;t57;1;451;word;6;medium;318;LF;STENA;5
141;s12;t58;1;441;word;6;medium;463;HF;IZVOR;5
156;s12;t59;1;591;word;6;medium;2365;HF;LJUBAV;6
26;s12;t60;1;741;word;6;medium;2626;HF;PESMA;5
45;s12;t61;1;822;word;7;many;118;LF;MOMAK;5
165;s12;t62;1;520;word;7;many;129;LF;BLAGO;5
51;s12;t63;1;541;word;7;many;134;LF;OSNOV;5
102;s12;t64;1;641;word;7;many;193;LF;STADO;5
135;s12;t65;1;441;word;7;many;326;LF;SLAVA;5
78;s12;t66;1;551;word;7;many;649;HF;KNJIGA;6
88;s12;t67;1;581;word;7;many;885;HF;[KOLA;5
146;s12;t68;1;601;word;7;many;1023;HF;BORBA;5
119;s12;t69;1;511;word;7;many;1565;HF;OBLAK;5
129;s12;t70;1;651;word;7;many;2984;HF;SUNCE;5
151;s12;t71;1;761;word;8;many;111;LF;REBRO;5
157;s12;t72;1;521;word;8;many;116;LF;KONAC;5
112;s12;t73;1;541;word;8;many;135;LF;POTEZ;5
79;s12;t74;1;521;word;8;many;159;LF;JUNAK;5
137;s12;t75;1;611;word;8;many;212;LF;LANAC;5
149;s12;t76;1;571;word;8;many;380;LF;ZLATO;5
44;s12;t77;1;510;word;8;many;416;HF;PISMO;5
142;s12;t78;1;641;word;8;many;431;HF;ZAKON;5
96;s12;t79;1;711;word;8;many;1460;HF;SNAGA;5
41;s12;t80;1;601;word;8;many;3952;HF;ZEMLJA;6
77;s12;t81;1;471;word;9;many;161;LF;KLASA;5
37;s12;t82;1;591;word;9;many;168;LF;PLO^A;5
34;s12;t83;1;600;word;9;many;307;LF;KARTA;5
61;s12;t84;1;600;word;9;many;328;LF;MRE@A;5
6;s12;t85;1;621;word;9;many;399;LF;STANJE;6
75;s12;t86;1;501;word;9;many;403;HF;GOVOR;5
38;s12;t87;1;491;word;9;many;999;HF;POSAO;5
164;s12;t88;1;581;word;9;many;1180;HF;MESTO;5
113;s12;t89;1;661;word;9;many;1620;HF;NAROD;5
20;s12;t90;1;621;word;9;many;190;LF;TA^KA;5
90;s13;t1;1;561;word;1;few;302;LF;[APAT;5
44;s13;t2;1;601;word;1;few;320;LF;MR@NJA;6
52;s13;t3;1;1001;word;1;few;391;LF;CESTA;5
47;s13;t4;1;651;word;1;few;414;HF;^E@NJA;6
104;s13;t5;1;741;word;1;few;424;HF;GRANJE;6
128;s13;t6;1;521;word;1;few;448;HF;DE^AK;5
136;s13;t7;1;540;word;1;few;453;HF;APRIL;5
72;s13;t8;1;521;word;1;few;720;HF;OSMEH;5
41;s13;t9;1;621;word;1;few;786;HF;CVE]E;5
184;s13;t10;1;290;word;1;few;1085;HF;LI[]E;5
157;s13;t11;1;541;word;2;few;254;LF;EKIPA;5
63;s13;t12;1;520;word;2;few;272;LF;BA[TA;5
145;s13;t13;1;671;word;2;few;317;LF;RADIO;5
46;s13;t14;1;551;word;2;few;320;LF;PESAK;5
174;s13;t15;1;501;word;2;few;374;LF;USPEH;5
119;s13;t16;1;621;word;2;few;422;HF;USLOV;5
158;s13;t17;1;661;word;2;few;894;HF;DINAR;5
77;s13;t18;1;721;word;2;few;1052;HF;ODBOR;5
110;s13;t20;1;500;word;2;few;1452;HF;VLADA;5
88;s13;t21;1;531;word;3;few;334;LF;SUTON;5
81;s13;t22;1;791;word;3;few;335;LF;PU[KA;5
11;s13;t23;1;611;word;3;few;335;LF;SELJAK;6
191;s13;t25;1;611;word;3;few;414;HF;MINUT;5
125;s13;t27;1;580;word;3;few;631;HF;MAGLA;5
10;s13;t28;1;531;word;3;few;657;HF;MIRIS;5
87;s13;t29;1;571;word;3;few;1470;HF;TRAVA;5
124;s13;t30;1;681;word;3;few;1847;HF;ULICA;5
167;s13;t32;1;962;word;4;medium;280;LF;OBZIR;5
96;s13;t33;1;591;word;4;medium;295;LF;PA@NJA;6
93;s13;t34;1;521;word;4;medium;314;LF;SVEST;5
169;s13;t35;1;791;word;4;medium;328;LF;POTOK;5
42;s13;t37;1;762;word;4;medium;484;HF;POMO];5
92;s13;t38;1;591;word;4;medium;831;HF;GRUDI;5
189;s13;t39;1;871;word;4;medium;1256;HF;GRANA;5
61;s13;t40;1;641;word;4;medium;2274;HF;VETAR;5
83;s13;t41;1;601;word;5;medium;262;LF;KOMAD;5
37;s13;t42;1;521;word;5;medium;270;LF;LOPTA;5
142;s13;t43;1;601;word;5;medium;281;LF;IGRA^;5
25;s13;t44;1;631;word;5;medium;409;HF;PRI^A;5
146;s13;t45;1;540;word;5;medium;517;HF;SAVEZ;5
20;s13;t46;1;630;word;5;medium;521;HF;GRUPA;5
3;s13;t47;1;651;word;5;medium;828;HF;JESEN;5
172;s13;t48;1;611;word;5;medium;981;HF;KORAK;5
149;s13;t49;1;470;word;5;medium;1011;HF;SRE]A;5
152;s13;t50;1;500;word;5;medium;1671;HF;PTICA;5
144;s13;t51;1;701;word;6;medium;148;LF;ORGAN;5
26;s13;t52;1;591;word;6;medium;164;LF;FORMA;5
51;s13;t53;1;531;word;6;medium;179;LF;BLATO;5
28;s13;t54;1;581;word;6;medium;184;LF;KLUPA;5
179;s13;t55;1;711;word;6;medium;216;LF;PONOR;5
17;s13;t56;1;541;word;6;medium;255;LF;PODNE;5
13;s13;t57;1;581;word;6;medium;318;LF;STENA;5
8;s13;t58;1;691;word;6;medium;463;HF;IZVOR;5
122;s13;t59;1;510;word;6;medium;2365;HF;LJUBAV;6
2;s13;t60;1;591;word;6;medium;2626;HF;PESMA;5
57;s13;t61;1;541;word;7;many;118;LF;MOMAK;5
98;s13;t62;1;501;word;7;many;129;LF;BLAGO;5
82;s13;t65;1;581;word;7;many;326;LF;SLAVA;5
180;s13;t66;1;511;word;7;many;649;HF;KNJIGA;6
134;s13;t67;1;531;word;7;many;885;HF;[KOLA;5
66;s13;t68;1;631;word;7;many;1023;HF;BORBA;5
112;s13;t69;1;501;word;7;many;1565;HF;OBLAK;5
9;s13;t70;1;861;word;7;many;2984;HF;SUNCE;5
12;s13;t72;1;481;word;8;many;116;LF;KONAC;5
156;s13;t73;1;701;word;8;many;135;LF;POTEZ;5
117;s13;t74;1;621;word;8;many;159;LF;JUNAK;5
143;s13;t75;1;551;word;8;many;212;LF;LANAC;5
165;s13;t76;1;511;word;8;many;380;LF;ZLATO;5
130;s13;t77;1;521;word;8;many;416;HF;PISMO;5
60;s13;t78;1;651;word;8;many;431;HF;ZAKON;5
4;s13;t79;1;581;word;8;many;1460;HF;SNAGA;5
19;s13;t80;1;661;word;8;many;3952;HF;ZEMLJA;6
163;s13;t81;1;781;word;9;many;161;LF;KLASA;5
118;s13;t82;1;491;word;9;many;168;LF;PLO^A;5
109;s13;t83;1;641;word;9;many;307;LF;KARTA;5
148;s13;t84;1;560;word;9;many;328;LF;MRE@A;5
161;s13;t85;1;591;word;9;many;399;LF;STANJE;6
155;s13;t86;1;521;word;9;many;403;HF;GOVOR;5
139;s13;t87;1;611;word;9;many;999;HF;POSAO;5
162;s13;t88;1;501;word;9;many;1180;HF;MESTO;5
91;s13;t89;1;551;word;9;many;1620;HF;NAROD;5
16;s13;t90;1;531;word;9;many;190;LF;TA^KA;5
51;s14;t2;1;611;word;1;few;320;LF;MR@NJA;6
54;s14;t4;1;891;word;1;few;414;HF;^E@NJA;6
70;s14;t5;1;872;word;1;few;424;HF;GRANJE;6
152;s14;t6;1;551;word;1;few;448;HF;DE^AK;5
133;s14;t7;1;621;word;1;few;453;HF;APRIL;5
18;s14;t8;1;591;word;1;few;720;HF;OSMEH;5
113;s14;t9;1;781;word;1;few;786;HF;CVE]E;5
103;s14;t10;1;851;word;1;few;1085;HF;LI[]E;5
105;s14;t11;1;611;word;2;few;254;LF;EKIPA;5
77;s14;t12;1;561;word;2;few;272;LF;BA[TA;5
43;s14;t13;1;641;word;2;few;317;LF;RADIO;5
131;s14;t14;1;571;word;2;few;320;LF;PESAK;5
115;s14;t15;1;741;word;2;few;374;LF;USPEH;5
7;s14;t16;1;591;word;2;few;422;HF;USLOV;5
44;s14;t17;1;691;word;2;few;894;HF;DINAR;5
174;s14;t18;1;651;word;2;few;1052;HF;ODBOR;5
14;s14;t19;1;561;word;2;few;1209;HF;SENKA;5
37;s14;t20;1;501;word;2;few;1452;HF;VLADA;5
136;s14;t22;1;621;word;3;few;335;LF;PU[KA;5
140;s14;t23;1;851;word;3;few;335;LF;SELJAK;6
39;s14;t24;1;811;word;3;few;348;LF;SPRAT;5
83;s14;t25;1;871;word;3;few;414;HF;MINUT;5
182;s14;t26;1;561;word;3;few;430;HF;VIDIK;5
55;s14;t27;1;671;word;3;few;631;HF;MAGLA;5
45;s14;t28;1;601;word;3;few;657;HF;MIRIS;5
187;s14;t29;1;621;word;3;few;1470;HF;TRAVA;5
183;s14;t30;1;541;word;3;few;1847;HF;ULICA;5
156;s14;t32;1;540;word;4;medium;280;LF;OBZIR;5
150;s14;t33;1;591;word;4;medium;295;LF;PA@NJA;6
157;s14;t35;1;550;word;4;medium;328;LF;POTOK;5
71;s14;t36;1;611;word;4;medium;375;LF;ZVONO;5
22;s14;t37;1;440;word;4;medium;484;HF;POMO];5
11;s14;t38;1;621;word;4;medium;831;HF;GRUDI;5
144;s14;t39;1;510;word;4;medium;1256;HF;GRANA;5
121;s14;t40;1;801;word;4;medium;2274;HF;VETAR;5
146;s14;t41;1;581;word;5;medium;262;LF;KOMAD;5
179;s14;t42;1;911;word;5;medium;270;LF;LOPTA;5
159;s14;t43;1;751;word;5;medium;281;LF;IGRA^;5
96;s14;t44;1;571;word;5;medium;409;HF;PRI^A;5
28;s14;t45;1;681;word;5;medium;517;HF;SAVEZ;5
47;s14;t46;1;621;word;5;medium;521;HF;GRUPA;5
141;s14;t47;1;631;word;5;medium;828;HF;JESEN;5
10;s14;t48;1;871;word;5;medium;981;HF;KORAK;5
173;s14;t49;1;560;word;5;medium;1011;HF;SRE]A;5
161;s14;t50;1;661;word;5;medium;1671;HF;PTICA;5
32;s14;t51;1;721;word;6;medium;148;LF;ORGAN;5
91;s14;t52;1;681;word;6;medium;164;LF;FORMA;5
30;s14;t53;1;571;word;6;medium;179;LF;BLATO;5
97;s14;t54;1;621;word;6;medium;184;LF;KLUPA;5
138;s14;t55;1;681;word;6;medium;216;LF;PONOR;5
104;s14;t56;1;691;word;6;medium;255;LF;PODNE;5
35;s14;t57;1;630;word;6;medium;318;LF;STENA;5
137;s14;t58;1;741;word;6;medium;463;HF;IZVOR;5
151;s14;t59;1;541;word;6;medium;2365;HF;LJUBAV;6
57;s14;t60;1;631;word;6;medium;2626;HF;PESMA;5
90;s14;t61;1;541;word;7;many;118;LF;MOMAK;5
171;s14;t62;1;791;word;7;many;129;LF;BLAGO;5
65;s14;t63;1;721;word;7;many;134;LF;OSNOV;5
176;s14;t65;1;641;word;7;many;326;LF;SLAVA;5
78;s14;t66;1;591;word;7;many;649;HF;KNJIGA;6
167;s14;t67;1;681;word;7;many;885;HF;[KOLA;5
162;s14;t68;1;571;word;7;many;1023;HF;BORBA;5
125;s14;t69;1;590;word;7;many;1565;HF;OBLAK;5
66;s14;t70;1;611;word;7;many;2984;HF;SUNCE;5
73;s14;t71;1;701;word;8;many;111;LF;REBRO;5
177;s14;t72;1;651;word;8;many;116;LF;KONAC;5
149;s14;t73;1;641;word;8;many;135;LF;POTEZ;5
63;s14;t74;1;862;word;8;many;159;LF;JUNAK;5
80;s14;t75;1;491;word;8;many;212;LF;LANAC;5
16;s14;t76;1;501;word;8;many;380;LF;ZLATO;5
134;s14;t77;1;1012;word;8;many;416;HF;PISMO;5
186;s14;t78;1;881;word;8;many;431;HF;ZAKON;5
89;s14;t79;1;851;word;8;many;1460;HF;SNAGA;5
84;s14;t80;1;631;word;8;many;3952;HF;ZEMLJA;6
132;s14;t81;1;641;word;9;many;161;LF;KLASA;5
99;s14;t82;1;601;word;9;many;168;LF;PLO^A;5
5;s14;t83;1;601;word;9;many;307;LF;KARTA;5
94;s14;t84;1;911;word;9;many;328;LF;MRE@A;5
76;s14;t85;1;611;word;9;many;399;LF;STANJE;6
19;s14;t86;1;481;word;9;many;403;HF;GOVOR;5
49;s14;t87;1;591;word;9;many;999;HF;POSAO;5
6;s14;t88;1;601;word;9;many;1180;HF;MESTO;5
53;s14;t89;1;821;word;9;many;1620;HF;NAROD;5
20;s14;t90;1;621;word;9;many;190;LF;TA^KA;5
23;s15;t1;1;781;word;1;few;302;LF;[APAT;5
41;s15;t2;1;721;word;1;few;320;LF;MR@NJA;6
64;s15;t3;1;901;word;1;few;391;LF;CESTA;5
68;s15;t4;1;791;word;1;few;414;HF;^E@NJA;6
5;s15;t5;1;931;word;1;few;424;HF;GRANJE;6
74;s15;t6;1;701;word;1;few;448;HF;DE^AK;5
150;s15;t7;1;641;word;1;few;453;HF;APRIL;5
40;s15;t8;1;691;word;1;few;720;HF;OSMEH;5
126;s15;t9;1;1131;word;1;few;786;HF;CVE]E;5
20;s15;t10;1;731;word;1;few;1085;HF;LI[]E;5
183;s15;t11;1;651;word;2;few;254;LF;EKIPA;5
166;s15;t12;1;831;word;2;few;272;LF;BA[TA;5
180;s15;t13;1;681;word;2;few;317;LF;RADIO;5
96;s15;t14;1;791;word;2;few;320;LF;PESAK;5
82;s15;t15;1;681;word;2;few;374;LF;USPEH;5
164;s15;t16;1;761;word;2;few;422;HF;USLOV;5
104;s15;t17;1;591;word;2;few;894;HF;DINAR;5
28;s15;t18;1;741;word;2;few;1052;HF;ODBOR;5
88;s15;t20;1;671;word;2;few;1452;HF;VLADA;5
99;s15;t21;1;931;word;3;few;334;LF;SUTON;5
53;s15;t22;1;831;word;3;few;335;LF;PU[KA;5
177;s15;t23;1;591;word;3;few;335;LF;SELJAK;6
170;s15;t24;1;751;word;3;few;348;LF;SPRAT;5
128;s15;t25;1;1242;word;3;few;414;HF;MINUT;5
62;s15;t26;1;771;word;3;few;430;HF;VIDIK;5
8;s15;t27;1;671;word;3;few;631;HF;MAGLA;5
2;s15;t29;1;591;word;3;few;1470;HF;TRAVA;5
92;s15;t30;1;801;word;3;few;1847;HF;ULICA;5
44;s15;t31;1;671;word;4;medium;278;LF;ZANOS;5
32;s15;t32;1;971;word;4;medium;280;LF;OBZIR;5
110;s15;t33;1;591;word;4;medium;295;LF;PA@NJA;6
135;s15;t34;1;661;word;4;medium;314;LF;SVEST;5
36;s15;t35;1;722;word;4;medium;328;LF;POTOK;5
37;s15;t36;1;651;word;4;medium;375;LF;ZVONO;5
86;s15;t37;1;701;word;4;medium;484;HF;POMO];5
78;s15;t38;1;621;word;4;medium;831;HF;GRUDI;5
31;s15;t39;1;701;word;4;medium;1256;HF;GRANA;5
102;s15;t40;1;681;word;4;medium;2274;HF;VETAR;5
19;s15;t41;1;701;word;5;medium;262;LF;KOMAD;5
109;s15;t42;1;781;word;5;medium;270;LF;LOPTA;5
76;s15;t43;1;821;word;5;medium;281;LF;IGRA^;5
21;s15;t44;1;660;word;5;medium;409;HF;PRI^A;5
95;s15;t45;1;731;word;5;medium;517;HF;SAVEZ;5
1;s15;t46;1;631;word;5;medium;521;HF;GRUPA;5
63;s15;t47;1;1021;word;5;medium;828;HF;JESEN;5
173;s15;t48;1;631;word;5;medium;981;HF;KORAK;5
176;s15;t49;1;792;word;5;medium;1011;HF;SRE]A;5
14;s15;t50;1;861;word;5;medium;1671;HF;PTICA;5
103;s15;t51;1;731;word;6;medium;148;LF;ORGAN;5
121;s15;t52;1;822;word;6;medium;164;LF;FORMA;5
38;s15;t53;1;621;word;6;medium;179;LF;BLATO;5
132;s15;t54;1;691;word;6;medium;184;LF;KLUPA;5
133;s15;t55;1;751;word;6;medium;216;LF;PONOR;5
122;s15;t56;1;671;word;6;medium;255;LF;PODNE;5
45;s15;t57;1;650;word;6;medium;318;LF;STENA;5
145;s15;t58;1;821;word;6;medium;463;HF;IZVOR;5
108;s15;t59;1;661;word;6;medium;2365;HF;LJUBAV;6
162;s15;t60;1;560;word;6;medium;2626;HF;PESMA;5
46;s15;t61;1;671;word;7;many;118;LF;MOMAK;5
113;s15;t62;1;961;word;7;many;129;LF;BLAGO;5
43;s15;t63;1;1011;word;7;many;134;LF;OSNOV;5
56;s15;t64;1;761;word;7;many;193;LF;STADO;5
114;s15;t65;1;781;word;7;many;326;LF;SLAVA;5
25;s15;t66;1;801;word;7;many;649;HF;KNJIGA;6
52;s15;t67;1;922;word;7;many;885;HF;[KOLA;5
181;s15;t68;1;561;word;7;many;1023;HF;BORBA;5
151;s15;t69;1;621;word;7;many;1565;HF;OBLAK;5
148;s15;t70;1;661;word;7;many;2984;HF;SUNCE;5
24;s15;t71;1;992;word;8;many;111;LF;REBRO;5
127;s15;t72;1;921;word;8;many;116;LF;KONAC;5
175;s15;t73;1;681;word;8;many;135;LF;POTEZ;5
123;s15;t74;1;721;word;8;many;159;LF;JUNAK;5
169;s15;t75;1;801;word;8;many;212;LF;LANAC;5
49;s15;t76;1;671;word;8;many;380;LF;ZLATO;5
72;s15;t77;1;781;word;8;many;416;HF;PISMO;5
161;s15;t78;1;691;word;8;many;431;HF;ZAKON;5
138;s15;t79;1;620;word;8;many;1460;HF;SNAGA;5
156;s15;t80;1;711;word;8;many;3952;HF;ZEMLJA;6
143;s15;t81;1;782;word;9;many;161;LF;KLASA;5
111;s15;t82;1;731;word;9;many;168;LF;PLO^A;5
59;s15;t83;1;871;word;9;many;307;LF;KARTA;5
22;s15;t84;1;761;word;9;many;328;LF;MRE@A;5
69;s15;t85;1;831;word;9;many;399;LF;STANJE;6
18;s15;t86;1;701;word;9;many;403;HF;GOVOR;5
131;s15;t87;1;761;word;9;many;999;HF;POSAO;5
70;s15;t88;1;671;word;9;many;1180;HF;MESTO;5
11;s15;t89;1;731;word;9;many;1620;HF;NAROD;5
47;s15;t90;1;611;word;9;many;190;LF;TA^KA;5
70;s16;t1;1;892;word;1;few;302;LF;[APAT;5
173;s16;t2;1;691;word;1;few;320;LF;MR@NJA;6
89;s16;t4;1;691;word;1;few;414;HF;^E@NJA;6
84;s16;t5;1;751;word;1;few;424;HF;GRANJE;6
41;s16;t6;1;641;word;1;few;448;HF;DE^AK;5
45;s16;t7;1;560;word;1;few;453;HF;APRIL;5
8;s16;t8;1;671;word;1;few;720;HF;OSMEH;5
76;s16;t9;1;541;word;1;few;786;HF;CVE]E;5
36;s16;t10;1;571;word;1;few;1085;HF;LI[]E;5
48;s16;t11;1;620;word;2;few;254;LF;EKIPA;5
162;s16;t12;1;601;word;2;few;272;LF;BA[TA;5
156;s16;t13;1;551;word;2;few;317;LF;RADIO;5
30;s16;t14;1;481;word;2;few;320;LF;PESAK;5
87;s16;t15;1;561;word;2;few;374;LF;USPEH;5
136;s16;t16;1;550;word;2;few;422;HF;USLOV;5
23;s16;t17;1;481;word;2;few;894;HF;DINAR;5
153;s16;t18;1;551;word;2;few;1052;HF;ODBOR;5
39;s16;t19;1;540;word;2;few;1209;HF;SENKA;5
29;s16;t20;1;571;word;2;few;1452;HF;VLADA;5
107;s16;t21;1;671;word;3;few;334;LF;SUTON;5
131;s16;t22;1;551;word;3;few;335;LF;PU[KA;5
3;s16;t23;1;651;word;3;few;335;LF;SELJAK;6
2;s16;t24;1;771;word;3;few;348;LF;SPRAT;5
170;s16;t25;1;571;word;3;few;414;HF;MINUT;5
148;s16;t26;1;651;word;3;few;430;HF;VIDIK;5
166;s16;t27;1;611;word;3;few;631;HF;MAGLA;5
120;s16;t28;1;621;word;3;few;657;HF;MIRIS;5
93;s16;t29;1;761;word;3;few;1470;HF;TRAVA;5
178;s16;t30;1;601;word;3;few;1847;HF;ULICA;5
151;s16;t31;1;571;word;4;medium;278;LF;ZANOS;5
143;s16;t32;1;901;word;4;medium;280;LF;OBZIR;5
10;s16;t33;1;580;word;4;medium;295;LF;PA@NJA;6
91;s16;t34;1;781;word;4;medium;314;LF;SVEST;5
38;s16;t35;1;560;word;4;medium;328;LF;POTOK;5
58;s16;t36;1;641;word;4;medium;375;LF;ZVONO;5
15;s16;t37;1;440;word;4;medium;484;HF;POMO];5
73;s16;t38;1;641;word;4;medium;831;HF;GRUDI;5
24;s16;t39;1;471;word;4;medium;1256;HF;GRANA;5
150;s16;t40;1;461;word;4;medium;2274;HF;VETAR;5
88;s16;t41;1;681;word;5;medium;262;LF;KOMAD;5
55;s16;t42;1;501;word;5;medium;270;LF;LOPTA;5
66;s16;t43;1;501;word;5;medium;281;LF;IGRA^;5
40;s16;t44;1;581;word;5;medium;409;HF;PRI^A;5
31;s16;t45;1;601;word;5;medium;517;HF;SAVEZ;5
19;s16;t46;1;601;word;5;medium;521;HF;GRUPA;5
54;s16;t47;1;571;word;5;medium;828;HF;JESEN;5
26;s16;t48;1;711;word;5;medium;981;HF;KORAK;5
44;s16;t49;1;520;word;5;medium;1011;HF;SRE]A;5
122;s16;t50;1;551;word;5;medium;1671;HF;PTICA;5
43;s16;t51;1;701;word;6;medium;148;LF;ORGAN;5
67;s16;t52;1;611;word;6;medium;164;LF;FORMA;5
103;s16;t53;1;751;word;6;medium;179;LF;BLATO;5
96;s16;t54;1;691;word;6;medium;184;LF;KLUPA;5
95;s16;t55;1;501;word;6;medium;216;LF;PONOR;5
46;s16;t56;1;641;word;6;medium;255;LF;PODNE;5
71;s16;t57;1;550;word;6;medium;318;LF;STENA;5
165;s16;t58;1;561;word;6;medium;463;HF;IZVOR;5
140;s16;t59;1;510;word;6;medium;2365;HF;LJUBAV;6
22;s16;t60;1;511;word;6;medium;2626;HF;PESMA;5
51;s16;t61;1;591;word;7;many;118;LF;MOMAK;5
47;s16;t62;1;500;word;7;many;129;LF;BLAGO;5
65;s16;t63;1;711;word;7;many;134;LF;OSNOV;5
124;s16;t64;1;711;word;7;many;193;LF;STADO;5
118;s16;t65;1;751;word;7;many;326;LF;SLAVA;5
63;s16;t66;1;540;word;7;many;649;HF;KNJIGA;6
99;s16;t67;1;621;word;7;many;885;HF;[KOLA;5
109;s16;t68;1;711;word;7;many;1023;HF;BORBA;5
127;s16;t69;1;611;word;7;many;1565;HF;OBLAK;5
158;s16;t70;1;551;word;7;many;2984;HF;SUNCE;5
147;s16;t71;1;721;word;8;many;111;LF;REBRO;5
60;s16;t72;1;501;word;8;many;116;LF;KONAC;5
4;s16;t73;1;591;word;8;many;135;LF;POTEZ;5
56;s16;t74;1;591;word;8;many;159;LF;JUNAK;5
86;s16;t75;1;911;word;8;many;212;LF;LANAC;5
115;s16;t76;1;440;word;8;many;380;LF;ZLATO;5
104;s16;t77;1;510;word;8;many;416;HF;PISMO;5
138;s16;t78;1;550;word;8;many;431;HF;ZAKON;5
154;s16;t79;1;621;word;8;many;1460;HF;SNAGA;5
129;s16;t80;1;561;word;8;many;3952;HF;ZEMLJA;6
163;s16;t81;1;551;word;9;many;161;LF;KLASA;5
146;s16;t82;1;752;word;9;many;168;LF;PLO^A;5
74;s16;t83;1;591;word;9;many;307;LF;KARTA;5
92;s16;t84;1;641;word;9;many;328;LF;MRE@A;5
77;s16;t85;1;511;word;9;many;399;LF;STANJE;6
141;s16;t86;1;550;word;9;many;403;HF;GOVOR;5
94;s16;t87;1;591;word;9;many;999;HF;POSAO;5
13;s16;t88;1;590;word;9;many;1180;HF;MESTO;5
105;s16;t89;1;681;word;9;many;1620;HF;NAROD;5
111;s16;t90;1;631;word;9;many;190;LF;TA^KA;5
87;s17;t1;1;731;word;1;few;302;LF;[APAT;5
122;s17;t2;1;571;word;1;few;320;LF;MR@NJA;6
67;s17;t3;1;721;word;1;few;391;LF;CESTA;5
169;s17;t4;1;641;word;1;few;414;HF;^E@NJA;6
152;s17;t5;1;791;word;1;few;424;HF;GRANJE;6
158;s17;t6;1;551;word;1;few;448;HF;DE^AK;5
132;s17;t7;1;751;word;1;few;453;HF;APRIL;5
135;s17;t8;1;762;word;1;few;720;HF;OSMEH;5
17;s17;t9;1;861;word;1;few;786;HF;CVE]E;5
60;s17;t10;1;531;word;1;few;1085;HF;LI[]E;5
10;s17;t11;1;671;word;2;few;254;LF;EKIPA;5
29;s17;t12;1;561;word;2;few;272;LF;BA[TA;5
105;s17;t13;1;471;word;2;few;317;LF;RADIO;5
138;s17;t14;1;470;word;2;few;320;LF;PESAK;5
129;s17;t15;1;681;word;2;few;374;LF;USPEH;5
160;s17;t16;1;641;word;2;few;422;HF;USLOV;5
154;s17;t17;1;491;word;2;few;894;HF;DINAR;5
165;s17;t18;1;631;word;2;few;1052;HF;ODBOR;5
48;s17;t19;1;591;word;2;few;1209;HF;SENKA;5
41;s17;t20;1;731;word;2;few;1452;HF;VLADA;5
56;s17;t21;1;681;word;3;few;334;LF;SUTON;5
7;s17;t22;1;641;word;3;few;335;LF;PU[KA;5
13;s17;t23;1;881;word;3;few;335;LF;SELJAK;6
89;s17;t24;1;751;word;3;few;348;LF;SPRAT;5
51;s17;t25;1;500;word;3;few;414;HF;MINUT;5
70;s17;t26;1;601;word;3;few;430;HF;VIDIK;5
178;s17;t27;1;681;word;3;few;631;HF;MAGLA;5
57;s17;t28;1;661;word;3;few;657;HF;MIRIS;5
137;s17;t29;1;500;word;3;few;1470;HF;TRAVA;5
133;s17;t30;1;591;word;3;few;1847;HF;ULICA;5
39;s17;t31;1;691;word;4;medium;278;LF;ZANOS;5
182;s17;t32;1;721;word;4;medium;280;LF;OBZIR;5
45;s17;t33;1;681;word;4;medium;295;LF;PA@NJA;6
6;s17;t34;1;791;word;4;medium;314;LF;SVEST;5
81;s17;t35;1;581;word;4;medium;328;LF;POTOK;5
125;s17;t36;1;560;word;4;medium;375;LF;ZVONO;5
97;s17;t37;1;591;word;4;medium;484;HF;POMO];5
101;s17;t38;1;531;word;4;medium;831;HF;GRUDI;5
64;s17;t39;1;641;word;4;medium;1256;HF;GRANA;5
115;s17;t40;1;701;word;4;medium;2274;HF;VETAR;5
167;s17;t41;1;621;word;5;medium;262;LF;KOMAD;5
161;s17;t42;1;651;word;5;medium;270;LF;LOPTA;5
100;s17;t43;1;591;word;5;medium;281;LF;IGRA^;5
38;s17;t44;1;801;word;5;medium;409;HF;PRI^A;5
26;s17;t45;1;551;word;5;medium;517;HF;SAVEZ;5
49;s17;t46;1;501;word;5;medium;521;HF;GRUPA;5
119;s17;t47;1;581;word;5;medium;828;HF;JESEN;5
104;s17;t48;1;611;word;5;medium;981;HF;KORAK;5
46;s17;t49;1;511;word;5;medium;1011;HF;SRE]A;5
121;s17;t50;1;601;word;5;medium;1671;HF;PTICA;5
151;s17;t51;1;731;word;6;medium;148;LF;ORGAN;5
61;s17;t52;1;691;word;6;medium;164;LF;FORMA;5
63;s17;t53;1;541;word;6;medium;179;LF;BLATO;5
22;s17;t54;1;671;word;6;medium;184;LF;KLUPA;5
143;s17;t55;1;671;word;6;medium;216;LF;PONOR;5
124;s17;t56;1;681;word;6;medium;255;LF;PODNE;5
153;s17;t57;1;571;word;6;medium;318;LF;STENA;5
155;s17;t58;1;501;word;6;medium;463;HF;IZVOR;5
86;s17;t59;1;541;word;6;medium;2365;HF;LJUBAV;6
59;s17;t60;1;701;word;6;medium;2626;HF;PESMA;5
107;s17;t61;1;491;word;7;many;118;LF;MOMAK;5
88;s17;t62;1;581;word;7;many;129;LF;BLAGO;5
114;s17;t63;1;1062;word;7;many;134;LF;OSNOV;5
130;s17;t64;1;671;word;7;many;193;LF;STADO;5
4;s17;t65;1;581;word;7;many;326;LF;SLAVA;5
112;s17;t66;1;781;word;7;many;649;HF;KNJIGA;6
85;s17;t67;1;771;word;7;many;885;HF;[KOLA;5
123;s17;t68;1;581;word;7;many;1023;HF;BORBA;5
73;s17;t69;1;651;word;7;many;1565;HF;OBLAK;5
78;s17;t70;1;671;word;7;many;2984;HF;SUNCE;5
90;s17;t71;1;601;word;8;many;111;LF;REBRO;5
108;s17;t72;1;481;word;8;many;116;LF;KONAC;5
134;s17;t73;1;601;word;8;many;135;LF;POTEZ;5
118;s17;t74;1;701;word;8;many;159;LF;JUNAK;5
117;s17;t75;1;691;word;8;many;212;LF;LANAC;5
144;s17;t76;1;550;word;8;many;380;LF;ZLATO;5
50;s17;t77;1;521;word;8;many;416;HF;PISMO;5
136;s17;t78;1;571;word;8;many;431;HF;ZAKON;5
91;s17;t79;1;571;word;8;many;1460;HF;SNAGA;5
106;s17;t80;1;501;word;8;many;3952;HF;ZEMLJA;6
172;s17;t81;1;721;word;9;many;161;LF;KLASA;5
36;s17;t82;1;881;word;9;many;168;LF;PLO^A;5
54;s17;t83;1;571;word;9;many;307;LF;KARTA;5
103;s17;t84;1;681;word;9;many;328;LF;MRE@A;5
19;s17;t85;1;601;word;9;many;399;LF;STANJE;6
93;s17;t86;1;631;word;9;many;403;HF;GOVOR;5
8;s17;t87;1;521;word;9;many;999;HF;POSAO;5
147;s17;t88;1;560;word;9;many;1180;HF;MESTO;5
148;s17;t89;1;510;word;9;many;1620;HF;NAROD;5
163;s17;t90;1;590;word;9;many;190;LF;TA^KA;5
3;s18;t1;1;901;word;1;few;302;LF;[APAT;5
168;s18;t2;1;631;word;1;few;320;LF;MR@NJA;6
158;s18;t4;1;771;word;1;few;414;HF;^E@NJA;6
70;s18;t6;1;1062;word;1;few;448;HF;DE^AK;5
153;s18;t7;1;640;word;1;few;453;HF;APRIL;5
75;s18;t8;1;761;word;1;few;720;HF;OSMEH;5
163;s18;t9;1;701;word;1;few;786;HF;CVE]E;5
14;s18;t10;1;812;word;1;few;1085;HF;LI[]E;5
25;s18;t11;1;741;word;2;few;254;LF;EKIPA;5
178;s18;t12;1;911;word;2;few;272;LF;BA[TA;5
140;s18;t13;1;661;word;2;few;317;LF;RADIO;5
170;s18;t14;1;872;word;2;few;320;LF;PESAK;5
45;s18;t15;1;691;word;2;few;374;LF;USPEH;5
182;s18;t16;1;681;word;2;few;422;HF;USLOV;5
68;s18;t17;1;671;word;2;few;894;HF;DINAR;5
134;s18;t18;1;901;word;2;few;1052;HF;ODBOR;5
76;s18;t19;1;680;word;2;few;1209;HF;SENKA;5
101;s18;t20;1;641;word;2;few;1452;HF;VLADA;5
32;s18;t21;1;821;word;3;few;334;LF;SUTON;5
161;s18;t22;1;651;word;3;few;335;LF;PU[KA;5
99;s18;t23;1;791;word;3;few;335;LF;SELJAK;6
57;s18;t24;1;861;word;3;few;348;LF;SPRAT;5
151;s18;t25;1;511;word;3;few;414;HF;MINUT;5
155;s18;t26;1;1021;word;3;few;430;HF;VIDIK;5
67;s18;t27;1;882;word;3;few;631;HF;MAGLA;5
94;s18;t28;1;771;word;3;few;657;HF;MIRIS;5
142;s18;t29;1;711;word;3;few;1470;HF;TRAVA;5
135;s18;t30;1;711;word;3;few;1847;HF;ULICA;5
2;s18;t31;1;841;word;4;medium;278;LF;ZANOS;5
122;s18;t32;1;941;word;4;medium;280;LF;OBZIR;5
95;s18;t33;1;681;word;4;medium;295;LF;PA@NJA;6
173;s18;t34;1;641;word;4;medium;314;LF;SVEST;5
74;s18;t35;1;751;word;4;medium;328;LF;POTOK;5
23;s18;t36;1;561;word;4;medium;375;LF;ZVONO;5
110;s18;t37;1;791;word;4;medium;484;HF;POMO];5
13;s18;t38;1;811;word;4;medium;831;HF;GRUDI;5
16;s18;t39;1;1252;word;4;medium;1256;HF;GRANA;5
127;s18;t40;1;681;word;4;medium;2274;HF;VETAR;5
48;s18;t41;1;771;word;5;medium;262;LF;KOMAD;5
21;s18;t42;1;651;word;5;medium;270;LF;LOPTA;5
121;s18;t43;1;862;word;5;medium;281;LF;IGRA^;5
33;s18;t44;1;580;word;5;medium;409;HF;PRI^A;5
4;s18;t45;1;932;word;5;medium;517;HF;SAVEZ;5
59;s18;t46;1;711;word;5;medium;521;HF;GRUPA;5
66;s18;t47;1;711;word;5;medium;828;HF;JESEN;5
107;s18;t48;1;541;word;5;medium;981;HF;KORAK;5
41;s18;t49;1;661;word;5;medium;1011;HF;SRE]A;5
138;s18;t50;1;701;word;5;medium;1671;HF;PTICA;5
1;s18;t51;1;1051;word;6;medium;148;LF;ORGAN;5
37;s18;t52;1;901;word;6;medium;164;LF;FORMA;5
20;s18;t53;1;611;word;6;medium;179;LF;BLATO;5
44;s18;t54;1;731;word;6;medium;184;LF;KLUPA;5
85;s18;t55;1;881;word;6;medium;216;LF;PONOR;5
84;s18;t56;1;751;word;6;medium;255;LF;PODNE;5
60;s18;t57;1;711;word;6;medium;318;LF;STENA;5
30;s18;t58;1;721;word;6;medium;463;HF;IZVOR;5
93;s18;t59;1;671;word;6;medium;2365;HF;LJUBAV;6
181;s18;t60;1;610;word;6;medium;2626;HF;PESMA;5
117;s18;t61;1;771;word;7;many;118;LF;MOMAK;5
82;s18;t62;1;821;word;7;many;129;LF;BLAGO;5
46;s18;t63;1;701;word;7;many;134;LF;OSNOV;5
100;s18;t64;1;1102;word;7;many;193;LF;STADO;5
22;s18;t65;1;571;word;7;many;326;LF;SLAVA;5
6;s18;t66;1;691;word;7;many;649;HF;KNJIGA;6
53;s18;t67;1;581;word;7;many;885;HF;[KOLA;5
180;s18;t68;1;931;word;7;many;1023;HF;BORBA;5
103;s18;t69;1;651;word;7;many;1565;HF;OBLAK;5
139;s18;t70;1;801;word;7;many;2984;HF;SUNCE;5
77;s18;t71;1;801;word;8;many;111;LF;REBRO;5
96;s18;t72;1;1051;word;8;many;116;LF;KONAC;5
52;s18;t73;1;731;word;8;many;135;LF;POTEZ;5
87;s18;t74;1;851;word;8;many;159;LF;JUNAK;5
131;s18;t75;1;781;word;8;many;212;LF;LANAC;5
167;s18;t76;1;811;word;8;many;380;LF;ZLATO;5
9;s18;t77;1;651;word;8;many;416;HF;PISMO;5
8;s18;t78;1;671;word;8;many;431;HF;ZAKON;5
89;s18;t79;1;611;word;8;many;1460;HF;SNAGA;5
149;s18;t80;1;691;word;8;many;3952;HF;ZEMLJA;6
136;s18;t81;1;1131;word;9;many;161;LF;KLASA;5
55;s18;t82;1;951;word;9;many;168;LF;PLO^A;5
172;s18;t83;1;851;word;9;many;307;LF;KARTA;5
90;s18;t84;1;621;word;9;many;328;LF;MRE@A;5
18;s18;t85;1;701;word;9;many;399;LF;STANJE;6
105;s18;t86;1;721;word;9;many;403;HF;GOVOR;5
124;s18;t87;1;742;word;9;many;999;HF;POSAO;5
73;s18;t88;1;711;word;9;many;1180;HF;MESTO;5
150;s18;t89;1;581;word;9;many;1620;HF;NAROD;5
27;s18;t90;1;651;word;9;many;190;LF;TA^KA;5
7;s19;t1;1;701;word;1;few;302;LF;[APAT;5
15;s19;t2;1;581;word;1;few;320;LF;MR@NJA;6
9;s19;t3;1;611;word;1;few;391;LF;CESTA;5
164;s19;t4;1;791;word;1;few;414;HF;^E@NJA;6
44;s19;t5;1;721;word;1;few;424;HF;GRANJE;6
120;s19;t6;1;551;word;1;few;448;HF;DE^AK;5
12;s19;t7;1;551;word;1;few;453;HF;APRIL;5
84;s19;t8;1;620;word;1;few;720;HF;OSMEH;5
133;s19;t9;1;721;word;1;few;786;HF;CVE]E;5
39;s19;t11;1;771;word;2;few;254;LF;EKIPA;5
29;s19;t12;1;711;word;2;few;272;LF;BA[TA;5
184;s19;t13;1;611;word;2;few;317;LF;RADIO;5
116;s19;t14;1;941;word;2;few;320;LF;PESAK;5
173;s19;t15;1;570;word;2;few;374;LF;USPEH;5
74;s19;t16;1;561;word;2;few;422;HF;USLOV;5
98;s19;t17;1;1132;word;2;few;894;HF;DINAR;5
172;s19;t18;1;580;word;2;few;1052;HF;ODBOR;5
66;s19;t19;1;701;word;2;few;1209;HF;SENKA;5
131;s19;t20;1;691;word;2;few;1452;HF;VLADA;5
170;s19;t21;1;771;word;3;few;334;LF;SUTON;5
86;s19;t22;1;741;word;3;few;335;LF;PU[KA;5
3;s19;t23;1;791;word;3;few;335;LF;SELJAK;6
132;s19;t24;1;761;word;3;few;348;LF;SPRAT;5
31;s19;t25;1;511;word;3;few;414;HF;MINUT;5
174;s19;t26;1;641;word;3;few;430;HF;VIDIK;5
61;s19;t27;1;651;word;3;few;631;HF;MAGLA;5
35;s19;t28;1;631;word;3;few;657;HF;MIRIS;5
19;s19;t29;1;721;word;3;few;1470;HF;TRAVA;5
49;s19;t30;1;651;word;3;few;1847;HF;ULICA;5
24;s19;t31;1;752;word;4;medium;278;LF;ZANOS;5
59;s19;t32;1;541;word;4;medium;280;LF;OBZIR;5
25;s19;t33;1;841;word;4;medium;295;LF;PA@NJA;6
90;s19;t34;1;701;word;4;medium;314;LF;SVEST;5
4;s19;t35;1;571;word;4;medium;328;LF;POTOK;5
147;s19;t36;1;591;word;4;medium;375;LF;ZVONO;5
91;s19;t37;1;701;word;4;medium;484;HF;POMO];5
148;s19;t38;1;631;word;4;medium;831;HF;GRUDI;5
179;s19;t39;1;911;word;4;medium;1256;HF;GRANA;5
72;s19;t40;1;551;word;4;medium;2274;HF;VETAR;5
73;s19;t41;1;621;word;5;medium;262;LF;KOMAD;5
78;s19;t42;1;551;word;5;medium;270;LF;LOPTA;5
114;s19;t43;1;551;word;5;medium;281;LF;IGRA^;5
139;s19;t44;1;741;word;5;medium;409;HF;PRI^A;5
165;s19;t45;1;801;word;5;medium;517;HF;SAVEZ;5
50;s19;t46;1;571;word;5;medium;521;HF;GRUPA;5
175;s19;t47;1;510;word;5;medium;828;HF;JESEN;5
111;s19;t48;1;541;word;5;medium;981;HF;KORAK;5
81;s19;t49;1;661;word;5;medium;1011;HF;SRE]A;5
76;s19;t50;1;650;word;5;medium;1671;HF;PTICA;5
181;s19;t51;1;580;word;6;medium;148;LF;ORGAN;5
26;s19;t52;1;691;word;6;medium;164;LF;FORMA;5
119;s19;t53;1;631;word;6;medium;179;LF;BLATO;5
130;s19;t55;1;1092;word;6;medium;216;LF;PONOR;5
89;s19;t56;1;600;word;6;medium;255;LF;PODNE;5
57;s19;t57;1;631;word;6;medium;318;LF;STENA;5
77;s19;t58;1;731;word;6;medium;463;HF;IZVOR;5
94;s19;t59;1;921;word;6;medium;2365;HF;LJUBAV;6
8;s19;t60;1;721;word;6;medium;2626;HF;PESMA;5
38;s19;t61;1;771;word;7;many;118;LF;MOMAK;5
52;s19;t62;1;571;word;7;many;129;LF;BLAGO;5
30;s19;t63;1;651;word;7;many;134;LF;OSNOV;5
178;s19;t64;1;651;word;7;many;193;LF;STADO;5
161;s19;t65;1;671;word;7;many;326;LF;SLAVA;5
64;s19;t66;1;581;word;7;many;649;HF;KNJIGA;6
99;s19;t67;1;621;word;7;many;885;HF;[KOLA;5
88;s19;t68;1;631;word;7;many;1023;HF;BORBA;5
97;s19;t69;1;691;word;7;many;1565;HF;OBLAK;5
112;s19;t70;1;531;word;7;many;2984;HF;SUNCE;5
124;s19;t71;1;881;word;8;many;111;LF;REBRO;5
40;s19;t72;1;501;word;8;many;116;LF;KONAC;5
10;s19;t73;1;660;word;8;many;135;LF;POTEZ;5
157;s19;t74;1;791;word;8;many;159;LF;JUNAK;5
71;s19;t75;1;731;word;8;many;212;LF;LANAC;5
103;s19;t76;1;731;word;8;many;380;LF;ZLATO;5
5;s19;t77;1;631;word;8;many;416;HF;PISMO;5
140;s19;t78;1;691;word;8;many;431;HF;ZAKON;5
176;s19;t79;1;611;word;8;many;1460;HF;SNAGA;5
171;s19;t80;1;621;word;8;many;3952;HF;ZEMLJA;6
55;s19;t81;1;581;word;9;many;161;LF;KLASA;5
79;s19;t82;1;641;word;9;many;168;LF;PLO^A;5
68;s19;t83;1;591;word;9;many;307;LF;KARTA;5
182;s19;t84;1;540;word;9;many;328;LF;MRE@A;5
144;s19;t85;1;531;word;9;many;399;LF;STANJE;6
60;s19;t86;1;501;word;9;many;403;HF;GOVOR;5
105;s19;t87;1;660;word;9;many;999;HF;POSAO;5
146;s19;t88;1;601;word;9;many;1180;HF;MESTO;5
183;s19;t89;1;681;word;9;many;1620;HF;NAROD;5
14;s19;t90;1;561;word;9;many;190;LF;TA^KA;5
16;s2;t1;1;1081;word;1;few;302;LF;[APAT;5
77;s2;t2;1;701;word;1;few;320;LF;MR@NJA;6
64;s2;t3;1;831;word;1;few;391;LF;CESTA;5
166;s2;t4;1;901;word;1;few;414;HF;^E@NJA;6
8;s2;t6;1;741;word;1;few;448;HF;DE^AK;5
179;s2;t7;1;821;word;1;few;453;HF;APRIL;5
126;s2;t8;1;731;word;1;few;720;HF;OSMEH;5
193;s2;t9;1;681;word;1;few;786;HF;CVE]E;5
167;s2;t10;1;871;word;1;few;1085;HF;LI[]E;5
63;s2;t12;1;661;word;2;few;272;LF;BA[TA;5
42;s2;t13;1;691;word;2;few;317;LF;RADIO;5
73;s2;t14;1;681;word;2;few;320;LF;PESAK;5
189;s2;t15;1;731;word;2;few;374;LF;USPEH;5
121;s2;t16;1;811;word;2;few;422;HF;USLOV;5
139;s2;t17;1;862;word;2;few;894;HF;DINAR;5
190;s2;t18;1;951;word;2;few;1052;HF;ODBOR;5
89;s2;t19;1;911;word;2;few;1209;HF;SENKA;5
172;s2;t20;1;671;word;2;few;1452;HF;VLADA;5
41;s2;t21;1;1132;word;3;few;334;LF;SUTON;5
153;s2;t22;1;671;word;3;few;335;LF;PU[KA;5
91;s2;t23;1;821;word;3;few;335;LF;SELJAK;6
2;s2;t24;1;951;word;3;few;348;LF;SPRAT;5
85;s2;t25;1;942;word;3;few;414;HF;MINUT;5
105;s2;t26;1;952;word;3;few;430;HF;VIDIK;5
175;s2;t27;1;961;word;3;few;631;HF;MAGLA;5
173;s2;t28;1;581;word;3;few;657;HF;MIRIS;5
168;s2;t29;1;741;word;3;few;1470;HF;TRAVA;5
40;s2;t30;1;671;word;3;few;1847;HF;ULICA;5
130;s2;t31;1;661;word;4;medium;278;LF;ZANOS;5
51;s2;t32;1;1072;word;4;medium;280;LF;OBZIR;5
1;s2;t33;1;821;word;4;medium;295;LF;PA@NJA;6
6;s2;t34;1;811;word;4;medium;314;LF;SVEST;5
171;s2;t35;1;761;word;4;medium;328;LF;POTOK;5
35;s2;t36;1;871;word;4;medium;375;LF;ZVONO;5
17;s2;t37;1;1162;word;4;medium;484;HF;POMO];5
12;s2;t38;1;861;word;4;medium;831;HF;GRUDI;5
84;s2;t39;1;851;word;4;medium;1256;HF;GRANA;5
141;s2;t40;1;791;word;4;medium;2274;HF;VETAR;5
128;s2;t41;1;732;word;5;medium;262;LF;KOMAD;5
97;s2;t42;1;671;word;5;medium;270;LF;LOPTA;5
120;s2;t43;1;841;word;5;medium;281;LF;IGRA^;5
103;s2;t44;1;751;word;5;medium;409;HF;PRI^A;5
176;s2;t45;1;751;word;5;medium;517;HF;SAVEZ;5
10;s2;t46;1;782;word;5;medium;521;HF;GRUPA;5
135;s2;t47;1;821;word;5;medium;828;HF;JESEN;5
156;s2;t48;1;862;word;5;medium;981;HF;KORAK;5
180;s2;t49;1;721;word;5;medium;1011;HF;SRE]A;5
140;s2;t50;1;691;word;5;medium;1671;HF;PTICA;5
162;s2;t51;1;1061;word;6;medium;148;LF;ORGAN;5
38;s2;t52;1;822;word;6;medium;164;LF;FORMA;5
169;s2;t53;1;811;word;6;medium;179;LF;BLATO;5
170;s2;t54;1;721;word;6;medium;184;LF;KLUPA;5
80;s2;t55;1;1422;word;6;medium;216;LF;PONOR;5
30;s2;t56;1;721;word;6;medium;255;LF;PODNE;5
78;s2;t57;1;791;word;6;medium;318;LF;STENA;5
163;s2;t58;1;752;word;6;medium;463;HF;IZVOR;5
110;s2;t59;1;691;word;6;medium;2365;HF;LJUBAV;6
145;s2;t60;1;641;word;6;medium;2626;HF;PESMA;5
142;s2;t61;1;811;word;7;many;118;LF;MOMAK;5
159;s2;t62;1;761;word;7;many;129;LF;BLAGO;5
174;s2;t63;1;911;word;7;many;134;LF;OSNOV;5
138;s2;t64;1;751;word;7;many;193;LF;STADO;5
75;s2;t65;1;882;word;7;many;326;LF;SLAVA;5
182;s2;t66;1;791;word;7;many;649;HF;KNJIGA;6
61;s2;t67;1;631;word;7;many;885;HF;[KOLA;5
72;s2;t68;1;741;word;7;many;1023;HF;BORBA;5
123;s2;t69;1;781;word;7;many;1565;HF;OBLAK;5
9;s2;t70;1;721;word;7;many;2984;HF;SUNCE;5
5;s2;t71;1;1271;word;8;many;111;LF;REBRO;5
164;s2;t72;1;691;word;8;many;116;LF;KONAC;5
55;s2;t73;1;881;word;8;many;135;LF;POTEZ;5
83;s2;t74;1;822;word;8;many;159;LF;JUNAK;5
33;s2;t75;1;781;word;8;many;212;LF;LANAC;5
149;s2;t76;1;701;word;8;many;380;LF;ZLATO;5
49;s2;t77;1;901;word;8;many;416;HF;PISMO;5
32;s2;t78;1;821;word;8;many;431;HF;ZAKON;5
18;s2;t79;1;831;word;8;many;1460;HF;SNAGA;5
36;s2;t80;1;771;word;8;many;3952;HF;ZEMLJA;6
157;s2;t81;1;861;word;9;many;161;LF;KLASA;5
39;s2;t82;1;781;word;9;many;168;LF;PLO^A;5
25;s2;t83;1;841;word;9;many;307;LF;KARTA;5
3;s2;t85;1;802;word;9;many;399;LF;STANJE;6
192;s2;t86;1;761;word;9;many;403;HF;GOVOR;5
181;s2;t87;1;661;word;9;many;999;HF;POSAO;5
125;s2;t88;1;841;word;9;many;1180;HF;MESTO;5
54;s2;t89;1;862;word;9;many;1620;HF;NAROD;5
90;s2;t90;1;691;word;9;many;190;LF;TA^KA;5
171;s20;t1;1;611;word;1;few;302;LF;[APAT;5
87;s20;t2;1;510;word;1;few;320;LF;MR@NJA;6
152;s20;t3;1;661;word;1;few;391;LF;CESTA;5
82;s20;t4;1;581;word;1;few;414;HF;^E@NJA;6
106;s20;t5;1;771;word;1;few;424;HF;GRANJE;6
76;s20;t6;1;601;word;1;few;448;HF;DE^AK;5
141;s20;t7;1;671;word;1;few;453;HF;APRIL;5
102;s20;t8;1;600;word;1;few;720;HF;OSMEH;5
133;s20;t9;1;641;word;1;few;786;HF;CVE]E;5
130;s20;t10;1;731;word;1;few;1085;HF;LI[]E;5
66;s20;t11;1;771;word;2;few;254;LF;EKIPA;5
166;s20;t12;1;671;word;2;few;272;LF;BA[TA;5
85;s20;t13;1;500;word;2;few;317;LF;RADIO;5
5;s20;t14;1;631;word;2;few;320;LF;PESAK;5
42;s20;t15;1;751;word;2;few;374;LF;USPEH;5
68;s20;t16;1;681;word;2;few;422;HF;USLOV;5
43;s20;t17;1;541;word;2;few;894;HF;DINAR;5
187;s20;t18;1;981;word;2;few;1052;HF;ODBOR;5
181;s20;t19;1;561;word;2;few;1209;HF;SENKA;5
91;s20;t20;1;551;word;2;few;1452;HF;VLADA;5
4;s20;t21;1;801;word;3;few;334;LF;SUTON;5
7;s20;t22;1;531;word;3;few;335;LF;PU[KA;5
95;s20;t23;1;581;word;3;few;335;LF;SELJAK;6
180;s20;t25;1;791;word;3;few;414;HF;MINUT;5
34;s20;t26;1;521;word;3;few;430;HF;VIDIK;5
117;s20;t27;1;611;word;3;few;631;HF;MAGLA;5
9;s20;t28;1;691;word;3;few;657;HF;MIRIS;5
45;s20;t29;1;521;word;3;few;1470;HF;TRAVA;5
27;s20;t30;1;651;word;3;few;1847;HF;ULICA;5
55;s20;t31;1;591;word;4;medium;278;LF;ZANOS;5
62;s20;t32;1;630;word;4;medium;280;LF;OBZIR;5
89;s20;t33;1;551;word;4;medium;295;LF;PA@NJA;6
118;s20;t34;1;571;word;4;medium;314;LF;SVEST;5
123;s20;t35;1;711;word;4;medium;328;LF;POTOK;5
170;s20;t36;1;611;word;4;medium;375;LF;ZVONO;5
20;s20;t37;1;541;word;4;medium;484;HF;POMO];5
31;s20;t38;1;551;word;4;medium;831;HF;GRUDI;5
33;s20;t39;1;511;word;4;medium;1256;HF;GRANA;5
75;s20;t40;1;671;word;4;medium;2274;HF;VETAR;5
154;s20;t41;1;590;word;5;medium;262;LF;KOMAD;5
50;s20;t42;1;741;word;5;medium;270;LF;LOPTA;5
22;s20;t43;1;530;word;5;medium;281;LF;IGRA^;5
126;s20;t44;1;691;word;5;medium;409;HF;PRI^A;5
149;s20;t45;1;671;word;5;medium;517;HF;SAVEZ;5
119;s20;t46;1;531;word;5;medium;521;HF;GRUPA;5
19;s20;t47;1;1072;word;5;medium;828;HF;JESEN;5
120;s20;t48;1;681;word;5;medium;981;HF;KORAK;5
80;s20;t49;1;571;word;5;medium;1011;HF;SRE]A;5
69;s20;t50;1;611;word;5;medium;1671;HF;PTICA;5
189;s20;t51;1;762;word;6;medium;148;LF;ORGAN;5
35;s20;t52;1;551;word;6;medium;164;LF;FORMA;5
112;s20;t53;1;651;word;6;medium;179;LF;BLATO;5
1;s20;t54;1;701;word;6;medium;184;LF;KLUPA;5
32;s20;t55;1;511;word;6;medium;216;LF;PONOR;5
57;s20;t56;1;551;word;6;medium;255;LF;PODNE;5
105;s20;t57;1;791;word;6;medium;318;LF;STENA;5
139;s20;t58;1;751;word;6;medium;463;HF;IZVOR;5
128;s20;t59;1;631;word;6;medium;2365;HF;LJUBAV;6
145;s20;t61;1;651;word;7;many;118;LF;MOMAK;5
30;s20;t62;1;571;word;7;many;129;LF;BLAGO;5
169;s20;t63;1;620;word;7;many;134;LF;OSNOV;5
74;s20;t64;1;771;word;7;many;193;LF;STADO;5
108;s20;t65;1;921;word;7;many;326;LF;SLAVA;5
6;s20;t66;1;571;word;7;many;649;HF;KNJIGA;6
16;s20;t67;1;731;word;7;many;885;HF;[KOLA;5
138;s20;t68;1;651;word;7;many;1023;HF;BORBA;5
88;s20;t69;1;530;word;7;many;1565;HF;OBLAK;5
131;s20;t70;1;560;word;7;many;2984;HF;SUNCE;5
163;s20;t71;1;981;word;8;many;111;LF;REBRO;5
144;s20;t72;1;610;word;8;many;116;LF;KONAC;5
65;s20;t73;1;611;word;8;many;135;LF;POTEZ;5
24;s20;t74;1;531;word;8;many;159;LF;JUNAK;5
61;s20;t75;1;691;word;8;many;212;LF;LANAC;5
174;s20;t76;1;921;word;8;many;380;LF;ZLATO;5
142;s20;t77;1;540;word;8;many;416;HF;PISMO;5
177;s20;t78;1;581;word;8;many;431;HF;ZAKON;5
78;s20;t79;1;521;word;8;many;1460;HF;SNAGA;5
114;s20;t80;1;511;word;8;many;3952;HF;ZEMLJA;6
51;s20;t81;1;731;word;9;many;161;LF;KLASA;5
38;s20;t82;1;661;word;9;many;168;LF;PLO^A;5
67;s20;t83;1;611;word;9;many;307;LF;KARTA;5
15;s20;t84;1;661;word;9;many;328;LF;MRE@A;5
165;s20;t85;1;651;word;9;many;399;LF;STANJE;6
70;s20;t86;1;511;word;9;many;403;HF;GOVOR;5
188;s20;t87;1;520;word;9;many;999;HF;POSAO;5
93;s20;t88;1;571;word;9;many;1180;HF;MESTO;5
116;s20;t89;1;751;word;9;many;1620;HF;NAROD;5
36;s20;t90;1;470;word;9;many;190;LF;TA^KA;5
107;s21;t2;1;641;word;1;few;320;LF;MR@NJA;6
144;s21;t3;1;761;word;1;few;391;LF;CESTA;5
185;s21;t4;1;681;word;1;few;414;HF;^E@NJA;6
45;s21;t5;1;581;word;1;few;424;HF;GRANJE;6
39;s21;t6;1;580;word;1;few;448;HF;DE^AK;5
50;s21;t7;1;711;word;1;few;453;HF;APRIL;5
48;s21;t8;1;571;word;1;few;720;HF;OSMEH;5
33;s21;t10;1;761;word;1;few;1085;HF;LI[]E;5
138;s21;t11;1;731;word;2;few;254;LF;EKIPA;5
136;s21;t12;1;631;word;2;few;272;LF;BA[TA;5
55;s21;t13;1;651;word;2;few;317;LF;RADIO;5
6;s21;t14;1;601;word;2;few;320;LF;PESAK;5
124;s21;t15;1;671;word;2;few;374;LF;USPEH;5
56;s21;t16;1;531;word;2;few;422;HF;USLOV;5
142;s21;t17;1;741;word;2;few;894;HF;DINAR;5
38;s21;t18;1;711;word;2;few;1052;HF;ODBOR;5
71;s21;t19;1;581;word;2;few;1209;HF;SENKA;5
20;s21;t20;1;541;word;2;few;1452;HF;VLADA;5
109;s21;t21;1;671;word;3;few;334;LF;SUTON;5
52;s21;t22;1;761;word;3;few;335;LF;PU[KA;5
97;s21;t23;1;802;word;3;few;335;LF;SELJAK;6
164;s21;t24;1;781;word;3;few;348;LF;SPRAT;5
180;s21;t25;1;641;word;3;few;414;HF;MINUT;5
51;s21;t27;1;610;word;3;few;631;HF;MAGLA;5
169;s21;t28;1;751;word;3;few;657;HF;MIRIS;5
40;s21;t29;1;560;word;3;few;1470;HF;TRAVA;5
32;s21;t30;1;671;word;3;few;1847;HF;ULICA;5
187;s21;t31;1;601;word;4;medium;278;LF;ZANOS;5
81;s21;t32;1;781;word;4;medium;280;LF;OBZIR;5
59;s21;t33;1;571;word;4;medium;295;LF;PA@NJA;6
145;s21;t34;1;661;word;4;medium;314;LF;SVEST;5
101;s21;t35;1;621;word;4;medium;328;LF;POTOK;5
112;s21;t36;1;661;word;4;medium;375;LF;ZVONO;5
131;s21;t37;1;581;word;4;medium;484;HF;POMO];5
27;s21;t38;1;681;word;4;medium;831;HF;GRUDI;5
30;s21;t39;1;621;word;4;medium;1256;HF;GRANA;5
88;s21;t40;1;601;word;4;medium;2274;HF;VETAR;5
69;s21;t41;1;621;word;5;medium;262;LF;KOMAD;5
126;s21;t42;1;661;word;5;medium;270;LF;LOPTA;5
165;s21;t43;1;651;word;5;medium;281;LF;IGRA^;5
102;s21;t44;1;661;word;5;medium;409;HF;PRI^A;5
85;s21;t46;1;611;word;5;medium;521;HF;GRUPA;5
167;s21;t47;1;621;word;5;medium;828;HF;JESEN;5
96;s21;t48;1;591;word;5;medium;981;HF;KORAK;5
65;s21;t49;1;601;word;5;medium;1011;HF;SRE]A;5
53;s21;t50;1;591;word;5;medium;1671;HF;PTICA;5
63;s21;t51;1;712;word;6;medium;148;LF;ORGAN;5
176;s21;t52;1;681;word;6;medium;164;LF;FORMA;5
186;s21;t53;1;781;word;6;medium;179;LF;BLATO;5
92;s21;t54;1;581;word;6;medium;184;LF;KLUPA;5
128;s21;t55;1;771;word;6;medium;216;LF;PONOR;5
118;s21;t56;1;721;word;6;medium;255;LF;PODNE;5
117;s21;t57;1;631;word;6;medium;318;LF;STENA;5
82;s21;t58;1;611;word;6;medium;463;HF;IZVOR;5
106;s21;t59;1;1022;word;6;medium;2365;HF;LJUBAV;6
3;s21;t60;1;451;word;6;medium;2626;HF;PESMA;5
149;s21;t61;1;611;word;7;many;118;LF;MOMAK;5
67;s21;t62;1;581;word;7;many;129;LF;BLAGO;5
13;s21;t63;1;631;word;7;many;134;LF;OSNOV;5
99;s21;t64;1;651;word;7;many;193;LF;STADO;5
177;s21;t65;1;611;word;7;many;326;LF;SLAVA;5
54;s21;t66;1;561;word;7;many;649;HF;KNJIGA;6
78;s21;t67;1;531;word;7;many;885;HF;[KOLA;5
178;s21;t68;1;621;word;7;many;1023;HF;BORBA;5
46;s21;t69;1;551;word;7;many;1565;HF;OBLAK;5
76;s21;t70;1;712;word;7;many;2984;HF;SUNCE;5
83;s21;t72;1;641;word;8;many;116;LF;KONAC;5
108;s21;t73;1;761;word;8;many;135;LF;POTEZ;5
110;s21;t74;1;501;word;8;many;159;LF;JUNAK;5
34;s21;t75;1;1072;word;8;many;212;LF;LANAC;5
100;s21;t76;1;551;word;8;many;380;LF;ZLATO;5
1;s21;t77;1;480;word;8;many;416;HF;PISMO;5
103;s21;t78;1;501;word;8;many;431;HF;ZAKON;5
174;s21;t79;1;621;word;8;many;1460;HF;SNAGA;5
80;s21;t80;1;731;word;8;many;3952;HF;ZEMLJA;6
70;s21;t81;1;631;word;9;many;161;LF;KLASA;5
2;s21;t82;1;591;word;9;many;168;LF;PLO^A;5
28;s21;t83;1;611;word;9;many;307;LF;KARTA;5
43;s21;t84;1;811;word;9;many;328;LF;MRE@A;5
4;s21;t85;1;831;word;9;many;399;LF;STANJE;6
47;s21;t86;1;531;word;9;many;403;HF;GOVOR;5
116;s21;t87;1;711;word;9;many;999;HF;POSAO;5
95;s21;t88;1;661;word;9;many;1180;HF;MESTO;5
79;s21;t89;1;691;word;9;many;1620;HF;NAROD;5
21;s21;t90;1;521;word;9;many;190;LF;TA^KA;5
36;s22;t1;1;551;word;1;few;302;LF;[APAT;5
57;s22;t4;1;821;word;1;few;414;HF;^E@NJA;6
48;s22;t5;1;511;word;1;few;424;HF;GRANJE;6
65;s22;t6;1;430;word;1;few;448;HF;DE^AK;5
154;s22;t7;1;480;word;1;few;453;HF;APRIL;5
47;s22;t8;1;541;word;1;few;720;HF;OSMEH;5
85;s22;t9;1;501;word;1;few;786;HF;CVE]E;5
186;s22;t10;1;481;word;1;few;1085;HF;LI[]E;5
104;s22;t11;1;610;word;2;few;254;LF;EKIPA;5
146;s22;t12;1;521;word;2;few;272;LF;BA[TA;5
37;s22;t13;1;491;word;2;few;317;LF;RADIO;5
155;s22;t14;1;421;word;2;few;320;LF;PESAK;5
5;s22;t15;1;490;word;2;few;374;LF;USPEH;5
73;s22;t16;1;611;word;2;few;422;HF;USLOV;5
179;s22;t17;1;490;word;2;few;894;HF;DINAR;5
130;s22;t18;1;561;word;2;few;1052;HF;ODBOR;5
69;s22;t19;1;601;word;2;few;1209;HF;SENKA;5
92;s22;t20;1;641;word;2;few;1452;HF;VLADA;5
105;s22;t22;1;420;word;3;few;335;LF;PU[KA;5
75;s22;t23;1;631;word;3;few;335;LF;SELJAK;6
123;s22;t24;1;1112;word;3;few;348;LF;SPRAT;5
70;s22;t25;1;541;word;3;few;414;HF;MINUT;5
168;s22;t26;1;791;word;3;few;430;HF;VIDIK;5
110;s22;t27;1;510;word;3;few;631;HF;MAGLA;5
167;s22;t28;1;591;word;3;few;657;HF;MIRIS;5
111;s22;t29;1;530;word;3;few;1470;HF;TRAVA;5
10;s22;t30;1;451;word;3;few;1847;HF;ULICA;5
164;s22;t31;1;531;word;4;medium;278;LF;ZANOS;5
6;s22;t32;1;580;word;4;medium;280;LF;OBZIR;5
29;s22;t33;1;501;word;4;medium;295;LF;PA@NJA;6
53;s22;t34;1;571;word;4;medium;314;LF;SVEST;5
185;s22;t35;1;451;word;4;medium;328;LF;POTOK;5
63;s22;t36;1;591;word;4;medium;375;LF;ZVONO;5
7;s22;t37;1;520;word;4;medium;484;HF;POMO];5
128;s22;t38;1;521;word;4;medium;831;HF;GRUDI;5
151;s22;t39;1;450;word;4;medium;1256;HF;GRANA;5
158;s22;t40;1;420;word;4;medium;2274;HF;VETAR;5
26;s22;t41;1;691;word;5;medium;262;LF;KOMAD;5
108;s22;t42;1;580;word;5;medium;270;LF;LOPTA;5
157;s22;t43;1;380;word;5;medium;281;LF;IGRA^;5
150;s22;t45;1;701;word;5;medium;517;HF;SAVEZ;5
64;s22;t46;1;450;word;5;medium;521;HF;GRUPA;5
98;s22;t47;1;761;word;5;medium;828;HF;JESEN;5
187;s22;t49;1;370;word;5;medium;1011;HF;SRE]A;5
142;s22;t50;1;531;word;5;medium;1671;HF;PTICA;5
93;s22;t51;1;551;word;6;medium;148;LF;ORGAN;5
49;s22;t53;1;521;word;6;medium;179;LF;BLATO;5
4;s22;t54;1;621;word;6;medium;184;LF;KLUPA;5
52;s22;t55;1;701;word;6;medium;216;LF;PONOR;5
152;s22;t56;1;650;word;6;medium;255;LF;PODNE;5
136;s22;t57;1;541;word;6;medium;318;LF;STENA;5
23;s22;t58;1;590;word;6;medium;463;HF;IZVOR;5
83;s22;t59;1;401;word;6;medium;2365;HF;LJUBAV;6
9;s22;t60;1;581;word;6;medium;2626;HF;PESMA;5
24;s22;t61;1;701;word;7;many;118;LF;MOMAK;5
113;s22;t62;1;431;word;7;many;129;LF;BLAGO;5
50;s22;t63;1;661;word;7;many;134;LF;OSNOV;5
156;s22;t64;1;411;word;7;many;193;LF;STADO;5
28;s22;t65;1;491;word;7;many;326;LF;SLAVA;5
82;s22;t66;1;450;word;7;many;649;HF;KNJIGA;6
46;s22;t67;1;701;word;7;many;885;HF;[KOLA;5
124;s22;t68;1;561;word;7;many;1023;HF;BORBA;5
54;s22;t69;1;481;word;7;many;1565;HF;OBLAK;5
188;s22;t70;1;411;word;7;many;2984;HF;SUNCE;5
163;s22;t71;1;701;word;8;many;111;LF;REBRO;5
112;s22;t72;1;581;word;8;many;116;LF;KONAC;5
125;s22;t73;1;480;word;8;many;135;LF;POTEZ;5
147;s22;t74;1;551;word;8;many;159;LF;JUNAK;5
38;s22;t75;1;521;word;8;many;212;LF;LANAC;5
8;s22;t76;1;450;word;8;many;380;LF;ZLATO;5
149;s22;t77;1;510;word;8;many;416;HF;PISMO;5
39;s22;t78;1;451;word;8;many;431;HF;ZAKON;5
35;s22;t79;1;621;word;8;many;1460;HF;SNAGA;5
94;s22;t80;1;501;word;8;many;3952;HF;ZEMLJA;6
135;s22;t81;1;561;word;9;many;161;LF;KLASA;5
140;s22;t82;1;491;word;9;many;168;LF;PLO^A;5
20;s22;t83;1;681;word;9;many;307;LF;KARTA;5
81;s22;t84;1;570;word;9;many;328;LF;MRE@A;5
169;s22;t85;1;490;word;9;many;399;LF;STANJE;6
180;s22;t86;1;660;word;9;many;403;HF;GOVOR;5
178;s22;t87;1;570;word;9;many;999;HF;POSAO;5
184;s22;t88;1;491;word;9;many;1180;HF;MESTO;5
33;s22;t89;1;691;word;9;many;1620;HF;NAROD;5
55;s22;t90;1;431;word;9;many;190;LF;TA^KA;5
44;s23;t1;1;831;word;1;few;302;LF;[APAT;5
158;s23;t2;1;531;word;1;few;320;LF;MR@NJA;6
119;s23;t4;1;801;word;1;few;414;HF;^E@NJA;6
22;s23;t5;1;461;word;1;few;424;HF;GRANJE;6
66;s23;t6;1;651;word;1;few;448;HF;DE^AK;5
58;s23;t7;1;531;word;1;few;453;HF;APRIL;5
129;s23;t8;1;460;word;1;few;720;HF;OSMEH;5
106;s23;t9;1;531;word;1;few;786;HF;CVE]E;5
50;s23;t10;1;591;word;1;few;1085;HF;LI[]E;5
81;s23;t11;1;490;word;2;few;254;LF;EKIPA;5
60;s23;t12;1;501;word;2;few;272;LF;BA[TA;5
26;s23;t13;1;471;word;2;few;317;LF;RADIO;5
90;s23;t14;1;471;word;2;few;320;LF;PESAK;5
67;s23;t15;1;530;word;2;few;374;LF;USPEH;5
150;s23;t16;1;721;word;2;few;422;HF;USLOV;5
164;s23;t17;1;641;word;2;few;894;HF;DINAR;5
59;s23;t18;1;841;word;2;few;1052;HF;ODBOR;5
179;s23;t19;1;560;word;2;few;1209;HF;SENKA;5
47;s23;t20;1;711;word;2;few;1452;HF;VLADA;5
160;s23;t21;1;801;word;3;few;334;LF;SUTON;5
145;s23;t22;1;791;word;3;few;335;LF;PU[KA;5
25;s23;t23;1;521;word;3;few;335;LF;SELJAK;6
74;s23;t24;1;891;word;3;few;348;LF;SPRAT;5
169;s23;t25;1;541;word;3;few;414;HF;MINUT;5
180;s23;t26;1;691;word;3;few;430;HF;VIDIK;5
75;s23;t27;1;651;word;3;few;631;HF;MAGLA;5
69;s23;t28;1;490;word;3;few;657;HF;MIRIS;5
64;s23;t29;1;551;word;3;few;1470;HF;TRAVA;5
111;s23;t30;1;520;word;3;few;1847;HF;ULICA;5
117;s23;t31;1;691;word;4;medium;278;LF;ZANOS;5
103;s23;t33;1;460;word;4;medium;295;LF;PA@NJA;6
29;s23;t34;1;551;word;4;medium;314;LF;SVEST;5
127;s23;t35;1;550;word;4;medium;328;LF;POTOK;5
184;s23;t36;1;510;word;4;medium;375;LF;ZVONO;5
170;s23;t37;1;591;word;4;medium;484;HF;POMO];5
3;s23;t38;1;711;word;4;medium;831;HF;GRUDI;5
9;s23;t39;1;571;word;4;medium;1256;HF;GRANA;5
153;s23;t40;1;551;word;4;medium;2274;HF;VETAR;5
173;s23;t41;1;621;word;5;medium;262;LF;KOMAD;5
137;s23;t42;1;531;word;5;medium;270;LF;LOPTA;5
91;s23;t43;1;551;word;5;medium;281;LF;IGRA^;5
131;s23;t44;1;450;word;5;medium;409;HF;PRI^A;5
85;s23;t45;1;501;word;5;medium;517;HF;SAVEZ;5
97;s23;t46;1;490;word;5;medium;521;HF;GRUPA;5
49;s23;t47;1;591;word;5;medium;828;HF;JESEN;5
93;s23;t48;1;471;word;5;medium;981;HF;KORAK;5
20;s23;t49;1;461;word;5;medium;1011;HF;SRE]A;5
116;s23;t50;1;510;word;5;medium;1671;HF;PTICA;5
17;s23;t51;1;731;word;6;medium;148;LF;ORGAN;5
72;s23;t52;1;661;word;6;medium;164;LF;FORMA;5
149;s23;t53;1;521;word;6;medium;179;LF;BLATO;5
159;s23;t54;1;631;word;6;medium;184;LF;KLUPA;5
89;s23;t55;1;751;word;6;medium;216;LF;PONOR;5
120;s23;t56;1;531;word;6;medium;255;LF;PODNE;5
33;s23;t57;1;501;word;6;medium;318;LF;STENA;5
2;s23;t58;1;491;word;6;medium;463;HF;IZVOR;5
96;s23;t59;1;450;word;6;medium;2365;HF;LJUBAV;6
62;s23;t60;1;521;word;6;medium;2626;HF;PESMA;5
68;s23;t61;1;620;word;7;many;118;LF;MOMAK;5
32;s23;t62;1;501;word;7;many;129;LF;BLAGO;5
48;s23;t65;1;561;word;7;many;326;LF;SLAVA;5
108;s23;t66;1;511;word;7;many;649;HF;KNJIGA;6
185;s23;t67;1;741;word;7;many;885;HF;[KOLA;5
182;s23;t68;1;540;word;7;many;1023;HF;BORBA;5
142;s23;t69;1;581;word;7;many;1565;HF;OBLAK;5
176;s23;t70;1;521;word;7;many;2984;HF;SUNCE;5
14;s23;t71;1;631;word;8;many;111;LF;REBRO;5
55;s23;t72;1;581;word;8;many;116;LF;KONAC;5
18;s23;t73;1;801;word;8;many;135;LF;POTEZ;5
187;s23;t74;1;561;word;8;many;159;LF;JUNAK;5
46;s23;t75;1;571;word;8;many;212;LF;LANAC;5
13;s23;t76;1;531;word;8;many;380;LF;ZLATO;5
148;s23;t77;1;481;word;8;many;416;HF;PISMO;5
95;s23;t78;1;481;word;8;many;431;HF;ZAKON;5
156;s23;t79;1;591;word;8;many;1460;HF;SNAGA;5
92;s23;t80;1;441;word;8;many;3952;HF;ZEMLJA;6
15;s23;t81;1;571;word;9;many;161;LF;KLASA;5
101;s23;t82;1;511;word;9;many;168;LF;PLO^A;5
10;s23;t83;1;551;word;9;many;307;LF;KARTA;5
54;s23;t84;1;521;word;9;many;328;LF;MRE@A;5
76;s23;t85;1;440;word;9;many;399;LF;STANJE;6
11;s23;t86;1;501;word;9;many;403;HF;GOVOR;5
105;s23;t87;1;460;word;9;many;999;HF;POSAO;5
63;s23;t88;1;451;word;9;many;1180;HF;MESTO;5
16;s23;t89;1;591;word;9;many;1620;HF;NAROD;5
126;s23;t90;1;580;word;9;many;190;LF;TA^KA;5
106;s24;t2;1;601;word;1;few;320;LF;MR@NJA;6
24;s24;t4;1;701;word;1;few;414;HF;^E@NJA;6
112;s24;t6;1;551;word;1;few;448;HF;DE^AK;5
119;s24;t7;1;761;word;1;few;453;HF;APRIL;5
19;s24;t8;1;561;word;1;few;720;HF;OSMEH;5
125;s24;t9;1;551;word;1;few;786;HF;CVE]E;5
136;s24;t10;1;481;word;1;few;1085;HF;LI[]E;5
111;s24;t11;1;631;word;2;few;254;LF;EKIPA;5
195;s24;t12;1;882;word;2;few;272;LF;BA[TA;5
25;s24;t13;1;561;word;2;few;317;LF;RADIO;5
48;s24;t14;1;451;word;2;few;320;LF;PESAK;5
197;s24;t15;1;550;word;2;few;374;LF;USPEH;5
35;s24;t16;1;460;word;2;few;422;HF;USLOV;5
95;s24;t17;1;591;word;2;few;894;HF;DINAR;5
141;s24;t18;1;671;word;2;few;1052;HF;ODBOR;5
84;s24;t19;1;501;word;2;few;1209;HF;SENKA;5
36;s24;t20;1;772;word;2;few;1452;HF;VLADA;5
165;s24;t22;1;511;word;3;few;335;LF;PU[KA;5
60;s24;t24;1;561;word;3;few;348;LF;SPRAT;5
40;s24;t25;1;671;word;3;few;414;HF;MINUT;5
166;s24;t26;1;751;word;3;few;430;HF;VIDIK;5
126;s24;t27;1;531;word;3;few;631;HF;MAGLA;5
113;s24;t28;1;511;word;3;few;657;HF;MIRIS;5
59;s24;t29;1;671;word;3;few;1470;HF;TRAVA;5
53;s24;t30;1;450;word;3;few;1847;HF;ULICA;5
14;s24;t31;1;651;word;4;medium;278;LF;ZANOS;5
133;s24;t32;1;531;word;4;medium;280;LF;OBZIR;5
21;s24;t33;1;481;word;4;medium;295;LF;PA@NJA;6
82;s24;t34;1;571;word;4;medium;314;LF;SVEST;5
175;s24;t35;1;651;word;4;medium;328;LF;POTOK;5
107;s24;t36;1;641;word;4;medium;375;LF;ZVONO;5
74;s24;t37;1;501;word;4;medium;484;HF;POMO];5
176;s24;t38;1;611;word;4;medium;831;HF;GRUDI;5
135;s24;t40;1;441;word;4;medium;2274;HF;VETAR;5
65;s24;t41;1;580;word;5;medium;262;LF;KOMAD;5
159;s24;t42;1;651;word;5;medium;270;LF;LOPTA;5
85;s24;t43;1;681;word;5;medium;281;LF;IGRA^;5
120;s24;t45;1;491;word;5;medium;517;HF;SAVEZ;5
96;s24;t46;1;611;word;5;medium;521;HF;GRUPA;5
6;s24;t47;1;530;word;5;medium;828;HF;JESEN;5
153;s24;t48;1;771;word;5;medium;981;HF;KORAK;5
134;s24;t49;1;681;word;5;medium;1011;HF;SRE]A;5
124;s24;t50;1;511;word;5;medium;1671;HF;PTICA;5
70;s24;t51;1;551;word;6;medium;148;LF;ORGAN;5
67;s24;t52;1;631;word;6;medium;164;LF;FORMA;5
58;s24;t53;1;551;word;6;medium;179;LF;BLATO;5
101;s24;t54;1;761;word;6;medium;184;LF;KLUPA;5
163;s24;t55;1;651;word;6;medium;216;LF;PONOR;5
164;s24;t56;1;541;word;6;medium;255;LF;PODNE;5
34;s24;t57;1;630;word;6;medium;318;LF;STENA;5
191;s24;t58;1;701;word;6;medium;463;HF;IZVOR;5
29;s24;t59;1;521;word;6;medium;2365;HF;LJUBAV;6
50;s24;t60;1;511;word;6;medium;2626;HF;PESMA;5
189;s24;t61;1;721;word;7;many;118;LF;MOMAK;5
139;s24;t62;1;631;word;7;many;129;LF;BLAGO;5
187;s24;t65;1;631;word;7;many;326;LF;SLAVA;5
179;s24;t66;1;1382;word;7;many;649;HF;KNJIGA;6
110;s24;t67;1;531;word;7;many;885;HF;[KOLA;5
56;s24;t68;1;541;word;7;many;1023;HF;BORBA;5
8;s24;t69;1;500;word;7;many;1565;HF;OBLAK;5
30;s24;t70;1;531;word;7;many;2984;HF;SUNCE;5
80;s24;t71;1;701;word;8;many;111;LF;REBRO;5
42;s24;t72;1;561;word;8;many;116;LF;KONAC;5
149;s24;t73;1;822;word;8;many;135;LF;POTEZ;5
181;s24;t74;1;571;word;8;many;159;LF;JUNAK;5
10;s24;t75;1;550;word;8;many;212;LF;LANAC;5
161;s24;t76;1;621;word;8;many;380;LF;ZLATO;5
162;s24;t77;1;491;word;8;many;416;HF;PISMO;5
49;s24;t78;1;441;word;8;many;431;HF;ZAKON;5
128;s24;t79;1;521;word;8;many;1460;HF;SNAGA;5
167;s24;t80;1;561;word;8;many;3952;HF;ZEMLJA;6
130;s24;t81;1;541;word;9;many;161;LF;KLASA;5
169;s24;t82;1;571;word;9;many;168;LF;PLO^A;5
132;s24;t83;1;521;word;9;many;307;LF;KARTA;5
31;s24;t84;1;461;word;9;many;328;LF;MRE@A;5
105;s24;t85;1;601;word;9;many;399;LF;STANJE;6
63;s24;t86;1;590;word;9;many;403;HF;GOVOR;5
86;s24;t87;1;581;word;9;many;999;HF;POSAO;5
13;s24;t88;1;650;word;9;many;1180;HF;MESTO;5
154;s24;t89;1;491;word;9;many;1620;HF;NAROD;5
44;s24;t90;1;461;word;9;many;190;LF;TA^KA;5
162;s3;t1;1;671;word;1;few;302;LF;[APAT;5
3;s3;t2;1;511;word;1;few;320;LF;MR@NJA;6
122;s3;t3;1;761;word;1;few;391;LF;CESTA;5
121;s3;t4;1;611;word;1;few;414;HF;^E@NJA;6
88;s3;t5;1;591;word;1;few;424;HF;GRANJE;6
52;s3;t6;1;521;word;1;few;448;HF;DE^AK;5
89;s3;t7;1;541;word;1;few;453;HF;APRIL;5
61;s3;t8;1;630;word;1;few;720;HF;OSMEH;5
40;s3;t9;1;540;word;1;few;786;HF;CVE]E;5
136;s3;t10;1;501;word;1;few;1085;HF;LI[]E;5
130;s3;t11;1;901;word;2;few;254;LF;EKIPA;5
1;s3;t12;1;541;word;2;few;272;LF;BA[TA;5
48;s3;t13;1;500;word;2;few;317;LF;RADIO;5
139;s3;t14;1;570;word;2;few;320;LF;PESAK;5
38;s3;t15;1;621;word;2;few;374;LF;USPEH;5
173;s3;t16;1;490;word;2;few;422;HF;USLOV;5
23;s3;t17;1;651;word;2;few;894;HF;DINAR;5
79;s3;t18;1;781;word;2;few;1052;HF;ODBOR;5
32;s3;t19;1;571;word;2;few;1209;HF;SENKA;5
57;s3;t20;1;541;word;2;few;1452;HF;VLADA;5
156;s3;t22;1;481;word;3;few;335;LF;PU[KA;5
51;s3;t23;1;491;word;3;few;335;LF;SELJAK;6
20;s3;t24;1;620;word;3;few;348;LF;SPRAT;5
28;s3;t25;1;581;word;3;few;414;HF;MINUT;5
125;s3;t26;1;741;word;3;few;430;HF;VIDIK;5
25;s3;t27;1;551;word;3;few;631;HF;MAGLA;5
11;s3;t28;1;521;word;3;few;657;HF;MIRIS;5
123;s3;t29;1;531;word;3;few;1470;HF;TRAVA;5
85;s3;t30;1;711;word;3;few;1847;HF;ULICA;5
35;s3;t31;1;742;word;4;medium;278;LF;ZANOS;5
108;s3;t32;1;721;word;4;medium;280;LF;OBZIR;5
76;s3;t33;1;551;word;4;medium;295;LF;PA@NJA;6
137;s3;t34;1;450;word;4;medium;314;LF;SVEST;5
68;s3;t35;1;550;word;4;medium;328;LF;POTOK;5
104;s3;t36;1;490;word;4;medium;375;LF;ZVONO;5
141;s3;t37;1;460;word;4;medium;484;HF;POMO];5
133;s3;t38;1;481;word;4;medium;831;HF;GRUDI;5
7;s3;t39;1;551;word;4;medium;1256;HF;GRANA;5
166;s3;t40;1;521;word;4;medium;2274;HF;VETAR;5
148;s3;t41;1;571;word;5;medium;262;LF;KOMAD;5
69;s3;t42;1;510;word;5;medium;270;LF;LOPTA;5
155;s3;t43;1;561;word;5;medium;281;LF;IGRA^;5
160;s3;t44;1;551;word;5;medium;409;HF;PRI^A;5
26;s3;t45;1;561;word;5;medium;517;HF;SAVEZ;5
73;s3;t46;1;551;word;5;medium;521;HF;GRUPA;5
6;s3;t47;1;551;word;5;medium;828;HF;JESEN;5
153;s3;t48;1;561;word;5;medium;981;HF;KORAK;5
158;s3;t49;1;461;word;5;medium;1011;HF;SRE]A;5
174;s3;t50;1;461;word;5;medium;1671;HF;PTICA;5
58;s3;t51;1;641;word;6;medium;148;LF;ORGAN;5
132;s3;t52;1;671;word;6;medium;164;LF;FORMA;5
54;s3;t53;1;581;word;6;medium;179;LF;BLATO;5
83;s3;t54;1;501;word;6;medium;184;LF;KLUPA;5
135;s3;t55;1;521;word;6;medium;216;LF;PONOR;5
140;s3;t56;1;560;word;6;medium;255;LF;PODNE;5
18;s3;t57;1;651;word;6;medium;318;LF;STENA;5
90;s3;t58;1;631;word;6;medium;463;HF;IZVOR;5
5;s3;t59;1;501;word;6;medium;2365;HF;LJUBAV;6
111;s3;t60;1;571;word;6;medium;2626;HF;PESMA;5
134;s3;t61;1;511;word;7;many;118;LF;MOMAK;5
4;s3;t62;1;521;word;7;many;129;LF;BLAGO;5
146;s3;t63;1;591;word;7;many;134;LF;OSNOV;5
30;s3;t65;1;490;word;7;many;326;LF;SLAVA;5
44;s3;t66;1;671;word;7;many;649;HF;KNJIGA;6
101;s3;t67;1;501;word;7;many;885;HF;[KOLA;5
159;s3;t68;1;360;word;7;many;1023;HF;BORBA;5
31;s3;t69;1;560;word;7;many;1565;HF;OBLAK;5
178;s3;t70;1;581;word;7;many;2984;HF;SUNCE;5
71;s3;t71;1;661;word;8;many;111;LF;REBRO;5
147;s3;t72;1;511;word;8;many;116;LF;KONAC;5
96;s3;t73;1;591;word;8;many;135;LF;POTEZ;5
128;s3;t74;1;610;word;8;many;159;LF;JUNAK;5
143;s3;t75;1;892;word;8;many;212;LF;LANAC;5
56;s3;t76;1;731;word;8;many;380;LF;ZLATO;5
98;s3;t77;1;541;word;8;many;416;HF;PISMO;5
12;s3;t78;1;621;word;8;many;431;HF;ZAKON;5
27;s3;t79;1;551;word;8;many;1460;HF;SNAGA;5
117;s3;t80;1;521;word;8;many;3952;HF;ZEMLJA;6
129;s3;t81;1;550;word;9;many;161;LF;KLASA;5
124;s3;t82;1;661;word;9;many;168;LF;PLO^A;5
14;s3;t83;1;701;word;9;many;307;LF;KARTA;5
65;s3;t84;1;590;word;9;many;328;LF;MRE@A;5
119;s3;t85;1;591;word;9;many;399;LF;STANJE;6
13;s3;t86;1;491;word;9;many;403;HF;GOVOR;5
181;s3;t87;1;490;word;9;many;999;HF;POSAO;5
161;s3;t88;1;471;word;9;many;1180;HF;MESTO;5
74;s3;t89;1;541;word;9;many;1620;HF;NAROD;5
64;s3;t90;1;490;word;9;many;190;LF;TA^KA;5
97;s4;t2;1;541;word;1;few;320;LF;MR@NJA;6
4;s4;t3;1;701;word;1;few;391;LF;CESTA;5
173;s4;t4;1;661;word;1;few;414;HF;^E@NJA;6
151;s4;t5;1;631;word;1;few;424;HF;GRANJE;6
73;s4;t6;1;561;word;1;few;448;HF;DE^AK;5
141;s4;t7;1;510;word;1;few;453;HF;APRIL;5
54;s4;t8;1;691;word;1;few;720;HF;OSMEH;5
98;s4;t9;1;421;word;1;few;786;HF;CVE]E;5
60;s4;t10;1;610;word;1;few;1085;HF;LI[]E;5
8;s4;t11;1;550;word;2;few;254;LF;EKIPA;5
101;s4;t12;1;481;word;2;few;272;LF;BA[TA;5
104;s4;t13;1;631;word;2;few;317;LF;RADIO;5
137;s4;t14;1;471;word;2;few;320;LF;PESAK;5
16;s4;t15;1;530;word;2;few;374;LF;USPEH;5
175;s4;t16;1;570;word;2;few;422;HF;USLOV;5
171;s4;t17;1;601;word;2;few;894;HF;DINAR;5
139;s4;t18;1;551;word;2;few;1052;HF;ODBOR;5
160;s4;t19;1;500;word;2;few;1209;HF;SENKA;5
72;s4;t20;1;601;word;2;few;1452;HF;VLADA;5
168;s4;t21;1;711;word;3;few;334;LF;SUTON;5
67;s4;t22;1;551;word;3;few;335;LF;PU[KA;5
170;s4;t23;1;581;word;3;few;335;LF;SELJAK;6
133;s4;t24;1;561;word;3;few;348;LF;SPRAT;5
79;s4;t25;1;471;word;3;few;414;HF;MINUT;5
80;s4;t26;1;691;word;3;few;430;HF;VIDIK;5
157;s4;t27;1;550;word;3;few;631;HF;MAGLA;5
118;s4;t28;1;661;word;3;few;657;HF;MIRIS;5
166;s4;t29;1;640;word;3;few;1470;HF;TRAVA;5
77;s4;t30;1;631;word;3;few;1847;HF;ULICA;5
93;s4;t31;1;661;word;4;medium;278;LF;ZANOS;5
148;s4;t32;1;570;word;4;medium;280;LF;OBZIR;5
110;s4;t33;1;501;word;4;medium;295;LF;PA@NJA;6
61;s4;t34;1;600;word;4;medium;314;LF;SVEST;5
158;s4;t35;1;550;word;4;medium;328;LF;POTOK;5
53;s4;t36;1;521;word;4;medium;375;LF;ZVONO;5
89;s4;t37;1;470;word;4;medium;484;HF;POMO];5
37;s4;t38;1;551;word;4;medium;831;HF;GRUDI;5
65;s4;t39;1;711;word;4;medium;1256;HF;GRANA;5
119;s4;t40;1;531;word;4;medium;2274;HF;VETAR;5
25;s4;t41;1;521;word;5;medium;262;LF;KOMAD;5
180;s4;t42;1;731;word;5;medium;270;LF;LOPTA;5
55;s4;t43;1;501;word;5;medium;281;LF;IGRA^;5
57;s4;t44;1;550;word;5;medium;409;HF;PRI^A;5
130;s4;t45;1;681;word;5;medium;517;HF;SAVEZ;5
125;s4;t46;1;520;word;5;medium;521;HF;GRUPA;5
3;s4;t47;1;641;word;5;medium;828;HF;JESEN;5
106;s4;t48;1;661;word;5;medium;981;HF;KORAK;5
41;s4;t49;1;571;word;5;medium;1011;HF;SRE]A;5
85;s4;t50;1;471;word;5;medium;1671;HF;PTICA;5
27;s4;t51;1;521;word;6;medium;148;LF;ORGAN;5
62;s4;t52;1;530;word;6;medium;164;LF;FORMA;5
49;s4;t53;1;681;word;6;medium;179;LF;BLATO;5
84;s4;t54;1;581;word;6;medium;184;LF;KLUPA;5
69;s4;t55;1;551;word;6;medium;216;LF;PONOR;5
9;s4;t56;1;510;word;6;medium;255;LF;PODNE;5
15;s4;t57;1;721;word;6;medium;318;LF;STENA;5
112;s4;t58;1;571;word;6;medium;463;HF;IZVOR;5
40;s4;t59;1;531;word;6;medium;2365;HF;LJUBAV;6
123;s4;t60;1;521;word;6;medium;2626;HF;PESMA;5
124;s4;t61;1;531;word;7;many;118;LF;MOMAK;5
102;s4;t62;1;490;word;7;many;129;LF;BLAGO;5
155;s4;t63;1;581;word;7;many;134;LF;OSNOV;5
163;s4;t64;1;711;word;7;many;193;LF;STADO;5
153;s4;t65;1;1071;word;7;many;326;LF;SLAVA;5
86;s4;t66;1;581;word;7;many;649;HF;KNJIGA;6
68;s4;t67;1;481;word;7;many;885;HF;[KOLA;5
140;s4;t68;1;450;word;7;many;1023;HF;BORBA;5
131;s4;t69;1;521;word;7;many;1565;HF;OBLAK;5
135;s4;t70;1;511;word;7;many;2984;HF;SUNCE;5
136;s4;t71;1;701;word;8;many;111;LF;REBRO;5
120;s4;t72;1;531;word;8;many;116;LF;KONAC;5
179;s4;t73;1;510;word;8;many;135;LF;POTEZ;5
50;s4;t74;1;581;word;8;many;159;LF;JUNAK;5
154;s4;t75;1;842;word;8;many;212;LF;LANAC;5
96;s4;t76;1;541;word;8;many;380;LF;ZLATO;5
105;s4;t77;1;491;word;8;many;416;HF;PISMO;5
176;s4;t78;1;470;word;8;many;431;HF;ZAKON;5
161;s4;t79;1;490;word;8;many;1460;HF;SNAGA;5
6;s4;t80;1;601;word;8;many;3952;HF;ZEMLJA;6
78;s4;t81;1;541;word;9;many;161;LF;KLASA;5
94;s4;t82;1;671;word;9;many;168;LF;PLO^A;5
20;s4;t83;1;581;word;9;many;307;LF;KARTA;5
152;s4;t84;1;540;word;9;many;328;LF;MRE@A;5
34;s4;t85;1;681;word;9;many;399;LF;STANJE;6
12;s4;t86;1;520;word;9;many;403;HF;GOVOR;5
128;s4;t87;1;541;word;9;many;999;HF;POSAO;5
59;s4;t88;1;480;word;9;many;1180;HF;MESTO;5
87;s4;t89;1;511;word;9;many;1620;HF;NAROD;5
83;s4;t90;1;581;word;9;many;190;LF;TA^KA;5
17;s5;t1;1;761;word;1;few;302;LF;[APAT;5
128;s5;t2;1;661;word;1;few;320;LF;MR@NJA;6
106;s5;t3;1;691;word;1;few;391;LF;CESTA;5
53;s5;t4;1;651;word;1;few;414;HF;^E@NJA;6
102;s5;t5;1;831;word;1;few;424;HF;GRANJE;6
76;s5;t6;1;521;word;1;few;448;HF;DE^AK;5
63;s5;t7;1;480;word;1;few;453;HF;APRIL;5
108;s5;t8;1;691;word;1;few;720;HF;OSMEH;5
30;s5;t9;1;541;word;1;few;786;HF;CVE]E;5
25;s5;t10;1;651;word;1;few;1085;HF;LI[]E;5
58;s5;t11;1;501;word;2;few;254;LF;EKIPA;5
1;s5;t12;1;601;word;2;few;272;LF;BA[TA;5
122;s5;t13;1;540;word;2;few;317;LF;RADIO;5
154;s5;t14;1;651;word;2;few;320;LF;PESAK;5
103;s5;t15;1;511;word;2;few;374;LF;USPEH;5
98;s5;t16;1;591;word;2;few;422;HF;USLOV;5
114;s5;t17;1;561;word;2;few;894;HF;DINAR;5
116;s5;t18;1;591;word;2;few;1052;HF;ODBOR;5
99;s5;t19;1;570;word;2;few;1209;HF;SENKA;5
93;s5;t20;1;541;word;2;few;1452;HF;VLADA;5
77;s5;t21;1;661;word;3;few;334;LF;SUTON;5
94;s5;t22;1;511;word;3;few;335;LF;PU[KA;5
173;s5;t23;1;681;word;3;few;335;LF;SELJAK;6
92;s5;t24;1;671;word;3;few;348;LF;SPRAT;5
38;s5;t25;1;591;word;3;few;414;HF;MINUT;5
28;s5;t26;1;681;word;3;few;430;HF;VIDIK;5
183;s5;t27;1;601;word;3;few;631;HF;MAGLA;5
112;s5;t28;1;581;word;3;few;657;HF;MIRIS;5
182;s5;t29;1;621;word;3;few;1470;HF;TRAVA;5
115;s5;t30;1;711;word;3;few;1847;HF;ULICA;5
160;s5;t31;1;480;word;4;medium;278;LF;ZANOS;5
6;s5;t32;1;1102;word;4;medium;280;LF;OBZIR;5
131;s5;t33;1;501;word;4;medium;295;LF;PA@NJA;6
8;s5;t34;1;631;word;4;medium;314;LF;SVEST;5
54;s5;t35;1;541;word;4;medium;328;LF;POTOK;5
51;s5;t36;1;601;word;4;medium;375;LF;ZVONO;5
97;s5;t37;1;891;word;4;medium;484;HF;POMO];5
21;s5;t38;1;540;word;4;medium;831;HF;GRUDI;5
135;s5;t39;1;611;word;4;medium;1256;HF;GRANA;5
121;s5;t40;1;560;word;4;medium;2274;HF;VETAR;5
143;s5;t41;1;450;word;5;medium;262;LF;KOMAD;5
164;s5;t42;1;561;word;5;medium;270;LF;LOPTA;5
119;s5;t43;1;631;word;5;medium;281;LF;IGRA^;5
172;s5;t44;1;500;word;5;medium;409;HF;PRI^A;5
165;s5;t45;1;551;word;5;medium;517;HF;SAVEZ;5
15;s5;t46;1;771;word;5;medium;521;HF;GRUPA;5
110;s5;t47;1;501;word;5;medium;828;HF;JESEN;5
141;s5;t48;1;691;word;5;medium;981;HF;KORAK;5
55;s5;t49;1;541;word;5;medium;1011;HF;SRE]A;5
64;s5;t50;1;560;word;5;medium;1671;HF;PTICA;5
138;s5;t51;1;781;word;6;medium;148;LF;ORGAN;5
72;s5;t53;1;781;word;6;medium;179;LF;BLATO;5
52;s5;t54;1;751;word;6;medium;184;LF;KLUPA;5
159;s5;t55;1;550;word;6;medium;216;LF;PONOR;5
71;s5;t56;1;501;word;6;medium;255;LF;PODNE;5
158;s5;t57;1;630;word;6;medium;318;LF;STENA;5
57;s5;t58;1;551;word;6;medium;463;HF;IZVOR;5
73;s5;t59;1;530;word;6;medium;2365;HF;LJUBAV;6
145;s5;t60;1;531;word;6;medium;2626;HF;PESMA;5
134;s5;t61;1;541;word;7;many;118;LF;MOMAK;5
133;s5;t62;1;521;word;7;many;129;LF;BLAGO;5
157;s5;t63;1;540;word;7;many;134;LF;OSNOV;5
67;s5;t64;1;531;word;7;many;193;LF;STADO;5
96;s5;t65;1;611;word;7;many;326;LF;SLAVA;5
129;s5;t66;1;511;word;7;many;649;HF;KNJIGA;6
104;s5;t67;1;461;word;7;many;885;HF;[KOLA;5
4;s5;t68;1;531;word;7;many;1023;HF;BORBA;5
140;s5;t69;1;550;word;7;many;1565;HF;OBLAK;5
89;s5;t70;1;571;word;7;many;2984;HF;SUNCE;5
170;s5;t71;1;681;word;8;many;111;LF;REBRO;5
171;s5;t72;1;650;word;8;many;116;LF;KONAC;5
39;s5;t73;1;521;word;8;many;135;LF;POTEZ;5
41;s5;t74;1;581;word;8;many;159;LF;JUNAK;5
163;s5;t75;1;631;word;8;many;212;LF;LANAC;5
176;s5;t76;1;481;word;8;many;380;LF;ZLATO;5
166;s5;t77;1;571;word;8;many;416;HF;PISMO;5
142;s5;t78;1;541;word;8;many;431;HF;ZAKON;5
65;s5;t79;1;500;word;8;many;1460;HF;SNAGA;5
83;s5;t80;1;691;word;8;many;3952;HF;ZEMLJA;6
155;s5;t81;1;580;word;9;many;161;LF;KLASA;5
69;s5;t82;1;480;word;9;many;168;LF;PLO^A;5
36;s5;t83;1;701;word;9;many;307;LF;KARTA;5
11;s5;t84;1;581;word;9;many;328;LF;MRE@A;5
146;s5;t86;1;521;word;9;many;403;HF;GOVOR;5
109;s5;t87;1;521;word;9;many;999;HF;POSAO;5
37;s5;t88;1;501;word;9;many;1180;HF;MESTO;5
44;s5;t89;1;481;word;9;many;1620;HF;NAROD;5
175;s5;t90;1;591;word;9;many;190;LF;TA^KA;5
36;s6;t1;1;902;word;1;few;302;LF;[APAT;5
40;s6;t2;1;681;word;1;few;320;LF;MR@NJA;6
163;s6;t3;1;1102;word;1;few;391;LF;CESTA;5
121;s6;t4;1;841;word;1;few;414;HF;^E@NJA;6
119;s6;t5;1;841;word;1;few;424;HF;GRANJE;6
13;s6;t6;1;761;word;1;few;448;HF;DE^AK;5
129;s6;t7;1;741;word;1;few;453;HF;APRIL;5
51;s6;t8;1;641;word;1;few;720;HF;OSMEH;5
179;s6;t9;1;651;word;1;few;786;HF;CVE]E;5
43;s6;t10;1;921;word;1;few;1085;HF;LI[]E;5
57;s6;t11;1;731;word;2;few;254;LF;EKIPA;5
95;s6;t12;1;701;word;2;few;272;LF;BA[TA;5
70;s6;t13;1;640;word;2;few;317;LF;RADIO;5
18;s6;t14;1;681;word;2;few;320;LF;PESAK;5
165;s6;t15;1;661;word;2;few;374;LF;USPEH;5
89;s6;t16;1;631;word;2;few;422;HF;USLOV;5
32;s6;t17;1;771;word;2;few;894;HF;DINAR;5
173;s6;t18;1;691;word;2;few;1052;HF;ODBOR;5
46;s6;t19;1;571;word;2;few;1209;HF;SENKA;5
64;s6;t20;1;560;word;2;few;1452;HF;VLADA;5
96;s6;t22;1;641;word;3;few;335;LF;PU[KA;5
101;s6;t23;1;681;word;3;few;335;LF;SELJAK;6
97;s6;t24;1;932;word;3;few;348;LF;SPRAT;5
126;s6;t25;1;701;word;3;few;414;HF;MINUT;5
22;s6;t26;1;631;word;3;few;430;HF;VIDIK;5
7;s6;t27;1;611;word;3;few;631;HF;MAGLA;5
10;s6;t28;1;621;word;3;few;657;HF;MIRIS;5
76;s6;t29;1;681;word;3;few;1470;HF;TRAVA;5
81;s6;t30;1;841;word;3;few;1847;HF;ULICA;5
154;s6;t31;1;691;word;4;medium;278;LF;ZANOS;5
117;s6;t32;1;741;word;4;medium;280;LF;OBZIR;5
28;s6;t33;1;571;word;4;medium;295;LF;PA@NJA;6
133;s6;t34;1;721;word;4;medium;314;LF;SVEST;5
115;s6;t35;1;641;word;4;medium;328;LF;POTOK;5
1;s6;t36;1;781;word;4;medium;375;LF;ZVONO;5
45;s6;t37;1;491;word;4;medium;484;HF;POMO];5
90;s6;t38;1;641;word;4;medium;831;HF;GRUDI;5
66;s6;t40;1;611;word;4;medium;2274;HF;VETAR;5
127;s6;t41;1;611;word;5;medium;262;LF;KOMAD;5
152;s6;t42;1;651;word;5;medium;270;LF;LOPTA;5
143;s6;t43;1;712;word;5;medium;281;LF;IGRA^;5
85;s6;t44;1;671;word;5;medium;409;HF;PRI^A;5
25;s6;t45;1;991;word;5;medium;517;HF;SAVEZ;5
9;s6;t46;1;591;word;5;medium;521;HF;GRUPA;5
44;s6;t47;1;771;word;5;medium;828;HF;JESEN;5
131;s6;t48;1;661;word;5;medium;981;HF;KORAK;5
169;s6;t49;1;651;word;5;medium;1011;HF;SRE]A;5
161;s6;t50;1;882;word;5;medium;1671;HF;PTICA;5
24;s6;t51;1;691;word;6;medium;148;LF;ORGAN;5
177;s6;t52;1;852;word;6;medium;164;LF;FORMA;5
19;s6;t53;1;611;word;6;medium;179;LF;BLATO;5
142;s6;t54;1;771;word;6;medium;184;LF;KLUPA;5
164;s6;t55;1;1282;word;6;medium;216;LF;PONOR;5
74;s6;t56;1;782;word;6;medium;255;LF;PODNE;5
124;s6;t57;1;741;word;6;medium;318;LF;STENA;5
172;s6;t58;1;621;word;6;medium;463;HF;IZVOR;5
158;s6;t59;1;661;word;6;medium;2365;HF;LJUBAV;6
139;s6;t60;1;571;word;6;medium;2626;HF;PESMA;5
14;s6;t61;1;571;word;7;many;118;LF;MOMAK;5
20;s6;t62;1;721;word;7;many;129;LF;BLAGO;5
138;s6;t63;1;711;word;7;many;134;LF;OSNOV;5
48;s6;t64;1;791;word;7;many;193;LF;STADO;5
80;s6;t65;1;671;word;7;many;326;LF;SLAVA;5
3;s6;t66;1;651;word;7;many;649;HF;KNJIGA;6
174;s6;t67;1;571;word;7;many;885;HF;[KOLA;5
112;s6;t68;1;791;word;7;many;1023;HF;BORBA;5
73;s6;t69;1;621;word;7;many;1565;HF;OBLAK;5
122;s6;t71;1;842;word;8;many;111;LF;REBRO;5
140;s6;t72;1;641;word;8;many;116;LF;KONAC;5
159;s6;t74;1;801;word;8;many;159;LF;JUNAK;5
178;s6;t75;1;791;word;8;many;212;LF;LANAC;5
148;s6;t76;1;601;word;8;many;380;LF;ZLATO;5
111;s6;t77;1;571;word;8;many;416;HF;PISMO;5
180;s6;t78;1;601;word;8;many;431;HF;ZAKON;5
15;s6;t79;1;671;word;8;many;1460;HF;SNAGA;5
65;s6;t80;1;650;word;8;many;3952;HF;ZEMLJA;6
128;s6;t81;1;771;word;9;many;161;LF;KLASA;5
42;s6;t82;1;841;word;9;many;168;LF;PLO^A;5
145;s6;t83;1;681;word;9;many;307;LF;KARTA;5
116;s6;t84;1;872;word;9;many;328;LF;MRE@A;5
103;s6;t85;1;671;word;9;many;399;LF;STANJE;6
185;s6;t86;1;601;word;9;many;403;HF;GOVOR;5
92;s6;t87;1;611;word;9;many;999;HF;POSAO;5
146;s6;t88;1;631;word;9;many;1180;HF;MESTO;5
27;s6;t89;1;671;word;9;many;1620;HF;NAROD;5
23;s6;t90;1;611;word;9;many;190;LF;TA^KA;5
5;s7;t1;1;520;word;1;few;302;LF;[APAT;5
82;s7;t2;1;561;word;1;few;320;LF;MR@NJA;6
29;s7;t4;1;581;word;1;few;414;HF;^E@NJA;6
20;s7;t5;1;802;word;1;few;424;HF;GRANJE;6
96;s7;t6;1;621;word;1;few;448;HF;DE^AK;5
92;s7;t7;1;551;word;1;few;453;HF;APRIL;5
177;s7;t8;1;600;word;1;few;720;HF;OSMEH;5
174;s7;t9;1;441;word;1;few;786;HF;CVE]E;5
111;s7;t10;1;681;word;1;few;1085;HF;LI[]E;5
132;s7;t11;1;460;word;2;few;254;LF;EKIPA;5
134;s7;t12;1;500;word;2;few;272;LF;BA[TA;5
47;s7;t13;1;490;word;2;few;317;LF;RADIO;5
95;s7;t14;1;491;word;2;few;320;LF;PESAK;5
119;s7;t15;1;511;word;2;few;374;LF;USPEH;5
160;s7;t16;1;501;word;2;few;422;HF;USLOV;5
28;s7;t17;1;501;word;2;few;894;HF;DINAR;5
163;s7;t18;1;641;word;2;few;1052;HF;ODBOR;5
86;s7;t19;1;521;word;2;few;1209;HF;SENKA;5
39;s7;t20;1;511;word;2;few;1452;HF;VLADA;5
99;s7;t21;1;651;word;3;few;334;LF;SUTON;5
120;s7;t22;1;431;word;3;few;335;LF;PU[KA;5
156;s7;t23;1;831;word;3;few;335;LF;SELJAK;6
84;s7;t24;1;541;word;3;few;348;LF;SPRAT;5
44;s7;t25;1;430;word;3;few;414;HF;MINUT;5
155;s7;t26;1;580;word;3;few;430;HF;VIDIK;5
25;s7;t27;1;530;word;3;few;631;HF;MAGLA;5
70;s7;t28;1;560;word;3;few;657;HF;MIRIS;5
13;s7;t29;1;541;word;3;few;1470;HF;TRAVA;5
3;s7;t30;1;480;word;3;few;1847;HF;ULICA;5
42;s7;t31;1;481;word;4;medium;278;LF;ZANOS;5
53;s7;t32;1;541;word;4;medium;280;LF;OBZIR;5
102;s7;t33;1;480;word;4;medium;295;LF;PA@NJA;6
14;s7;t34;1;520;word;4;medium;314;LF;SVEST;5
12;s7;t35;1;762;word;4;medium;328;LF;POTOK;5
71;s7;t36;1;610;word;4;medium;375;LF;ZVONO;5
159;s7;t37;1;511;word;4;medium;484;HF;POMO];5
74;s7;t38;1;540;word;4;medium;831;HF;GRUDI;5
104;s7;t39;1;711;word;4;medium;1256;HF;GRANA;5
35;s7;t40;1;480;word;4;medium;2274;HF;VETAR;5
38;s7;t41;1;601;word;5;medium;262;LF;KOMAD;5
23;s7;t42;1;480;word;5;medium;270;LF;LOPTA;5
19;s7;t43;1;581;word;5;medium;281;LF;IGRA^;5
114;s7;t44;1;651;word;5;medium;409;HF;PRI^A;5
144;s7;t45;1;480;word;5;medium;517;HF;SAVEZ;5
175;s7;t46;1;461;word;5;medium;521;HF;GRUPA;5
17;s7;t47;1;480;word;5;medium;828;HF;JESEN;5
50;s7;t48;1;431;word;5;medium;981;HF;KORAK;5
30;s7;t49;1;521;word;5;medium;1011;HF;SRE]A;5
49;s7;t50;1;471;word;5;medium;1671;HF;PTICA;5
178;s7;t51;1;641;word;6;medium;148;LF;ORGAN;5
142;s7;t52;1;731;word;6;medium;164;LF;FORMA;5
161;s7;t53;1;681;word;6;medium;179;LF;BLATO;5
26;s7;t54;1;471;word;6;medium;184;LF;KLUPA;5
36;s7;t55;1;501;word;6;medium;216;LF;PONOR;5
128;s7;t56;1;591;word;6;medium;255;LF;PODNE;5
33;s7;t57;1;511;word;6;medium;318;LF;STENA;5
115;s7;t58;1;491;word;6;medium;463;HF;IZVOR;5
149;s7;t59;1;481;word;6;medium;2365;HF;LJUBAV;6
55;s7;t60;1;511;word;6;medium;2626;HF;PESMA;5
165;s7;t61;1;511;word;7;many;118;LF;MOMAK;5
48;s7;t62;1;450;word;7;many;129;LF;BLAGO;5
121;s7;t63;1;521;word;7;many;134;LF;OSNOV;5
97;s7;t64;1;481;word;7;many;193;LF;STADO;5
179;s7;t65;1;701;word;7;many;326;LF;SLAVA;5
34;s7;t66;1;470;word;7;many;649;HF;KNJIGA;6
180;s7;t67;1;481;word;7;many;885;HF;[KOLA;5
31;s7;t68;1;501;word;7;many;1023;HF;BORBA;5
79;s7;t69;1;531;word;7;many;1565;HF;OBLAK;5
22;s7;t70;1;531;word;7;many;2984;HF;SUNCE;5
60;s7;t72;1;451;word;8;many;116;LF;KONAC;5
94;s7;t73;1;521;word;8;many;135;LF;POTEZ;5
106;s7;t74;1;541;word;8;many;159;LF;JUNAK;5
183;s7;t75;1;470;word;8;many;212;LF;LANAC;5
75;s7;t76;1;460;word;8;many;380;LF;ZLATO;5
16;s7;t77;1;650;word;8;many;416;HF;PISMO;5
152;s7;t78;1;761;word;8;many;431;HF;ZAKON;5
89;s7;t79;1;541;word;8;many;1460;HF;SNAGA;5
7;s7;t80;1;541;word;8;many;3952;HF;ZEMLJA;6
109;s7;t81;1;571;word;9;many;161;LF;KLASA;5
166;s7;t82;1;430;word;9;many;168;LF;PLO^A;5
40;s7;t83;1;461;word;9;many;307;LF;KARTA;5
164;s7;t84;1;491;word;9;many;328;LF;MRE@A;5
135;s7;t85;1;471;word;9;many;399;LF;STANJE;6
171;s7;t86;1;601;word;9;many;403;HF;GOVOR;5
139;s7;t87;1;581;word;9;many;999;HF;POSAO;5
83;s7;t88;1;541;word;9;many;1180;HF;MESTO;5
66;s7;t89;1;541;word;9;many;1620;HF;NAROD;5
105;s7;t90;1;511;word;9;many;190;LF;TA^KA;5
114;s8;t1;1;1281;word;1;few;302;LF;[APAT;5
117;s8;t2;1;821;word;1;few;320;LF;MR@NJA;6
49;s8;t3;1;771;word;1;few;391;LF;CESTA;5
97;s8;t4;1;711;word;1;few;414;HF;^E@NJA;6
34;s8;t5;1;831;word;1;few;424;HF;GRANJE;6
142;s8;t6;1;591;word;1;few;448;HF;DE^AK;5
27;s8;t7;1;721;word;1;few;453;HF;APRIL;5
23;s8;t8;1;651;word;1;few;720;HF;OSMEH;5
118;s8;t9;1;661;word;1;few;786;HF;CVE]E;5
14;s8;t10;1;741;word;1;few;1085;HF;LI[]E;5
65;s8;t11;1;711;word;2;few;254;LF;EKIPA;5
82;s8;t12;1;671;word;2;few;272;LF;BA[TA;5
153;s8;t13;1;681;word;2;few;317;LF;RADIO;5
19;s8;t14;1;681;word;2;few;320;LF;PESAK;5
149;s8;t15;1;791;word;2;few;374;LF;USPEH;5
129;s8;t16;1;851;word;2;few;422;HF;USLOV;5
179;s8;t17;1;762;word;2;few;894;HF;DINAR;5
119;s8;t18;1;1012;word;2;few;1052;HF;ODBOR;5
93;s8;t19;1;901;word;2;few;1209;HF;SENKA;5
5;s8;t20;1;611;word;2;few;1452;HF;VLADA;5
171;s8;t21;1;641;word;3;few;334;LF;SUTON;5
121;s8;t22;1;611;word;3;few;335;LF;PU[KA;5
112;s8;t23;1;631;word;3;few;335;LF;SELJAK;6
57;s8;t24;1;641;word;3;few;348;LF;SPRAT;5
62;s8;t25;1;601;word;3;few;414;HF;MINUT;5
164;s8;t26;1;791;word;3;few;430;HF;VIDIK;5
8;s8;t27;1;872;word;3;few;631;HF;MAGLA;5
74;s8;t28;1;591;word;3;few;657;HF;MIRIS;5
115;s8;t29;1;721;word;3;few;1470;HF;TRAVA;5
63;s8;t30;1;801;word;3;few;1847;HF;ULICA;5
45;s8;t31;1;711;word;4;medium;278;LF;ZANOS;5
136;s8;t32;1;941;word;4;medium;280;LF;OBZIR;5
2;s8;t33;1;581;word;4;medium;295;LF;PA@NJA;6
61;s8;t34;1;661;word;4;medium;314;LF;SVEST;5
11;s8;t35;1;581;word;4;medium;328;LF;POTOK;5
151;s8;t36;1;621;word;4;medium;375;LF;ZVONO;5
172;s8;t37;1;761;word;4;medium;484;HF;POMO];5
131;s8;t38;1;711;word;4;medium;831;HF;GRUDI;5
143;s8;t39;1;751;word;4;medium;1256;HF;GRANA;5
56;s8;t40;1;721;word;4;medium;2274;HF;VETAR;5
86;s8;t41;1;650;word;5;medium;262;LF;KOMAD;5
99;s8;t42;1;591;word;5;medium;270;LF;LOPTA;5
50;s8;t43;1;591;word;5;medium;281;LF;IGRA^;5
110;s8;t44;1;611;word;5;medium;409;HF;PRI^A;5
78;s8;t45;1;580;word;5;medium;517;HF;SAVEZ;5
120;s8;t47;1;1041;word;5;medium;828;HF;JESEN;5
113;s8;t48;1;851;word;5;medium;981;HF;KORAK;5
175;s8;t49;1;661;word;5;medium;1011;HF;SRE]A;5
43;s8;t50;1;641;word;5;medium;1671;HF;PTICA;5
72;s8;t51;1;761;word;6;medium;148;LF;ORGAN;5
47;s8;t52;1;701;word;6;medium;164;LF;FORMA;5
77;s8;t53;1;771;word;6;medium;179;LF;BLATO;5
24;s8;t54;1;621;word;6;medium;184;LF;KLUPA;5
134;s8;t55;1;711;word;6;medium;216;LF;PONOR;5
170;s8;t56;1;681;word;6;medium;255;LF;PODNE;5
98;s8;t57;1;832;word;6;medium;318;LF;STENA;5
122;s8;t58;1;611;word;6;medium;463;HF;IZVOR;5
66;s8;t59;1;600;word;6;medium;2365;HF;LJUBAV;6
150;s8;t60;1;651;word;6;medium;2626;HF;PESMA;5
17;s8;t61;1;641;word;7;many;118;LF;MOMAK;5
54;s8;t62;1;641;word;7;many;129;LF;BLAGO;5
88;s8;t63;1;821;word;7;many;134;LF;OSNOV;5
6;s8;t64;1;651;word;7;many;193;LF;STADO;5
124;s8;t65;1;651;word;7;many;326;LF;SLAVA;5
4;s8;t66;1;581;word;7;many;649;HF;KNJIGA;6
167;s8;t67;1;631;word;7;many;885;HF;[KOLA;5
158;s8;t68;1;701;word;7;many;1023;HF;BORBA;5
108;s8;t69;1;651;word;7;many;1565;HF;OBLAK;5
40;s8;t70;1;581;word;7;many;2984;HF;SUNCE;5
12;s8;t71;1;671;word;8;many;111;LF;REBRO;5
46;s8;t72;1;701;word;8;many;116;LF;KONAC;5
152;s8;t73;1;581;word;8;many;135;LF;POTEZ;5
147;s8;t74;1;601;word;8;many;159;LF;JUNAK;5
13;s8;t75;1;571;word;8;many;212;LF;LANAC;5
35;s8;t76;1;571;word;8;many;380;LF;ZLATO;5
107;s8;t77;1;580;word;8;many;416;HF;PISMO;5
21;s8;t78;1;621;word;8;many;431;HF;ZAKON;5
29;s8;t79;1;651;word;8;many;1460;HF;SNAGA;5
69;s8;t80;1;661;word;8;many;3952;HF;ZEMLJA;6
176;s8;t81;1;621;word;9;many;161;LF;KLASA;5
159;s8;t82;1;581;word;9;many;168;LF;PLO^A;5
3;s8;t83;1;571;word;9;many;307;LF;KARTA;5
106;s8;t84;1;640;word;9;many;328;LF;MRE@A;5
111;s8;t85;1;721;word;9;many;399;LF;STANJE;6
32;s8;t86;1;681;word;9;many;403;HF;GOVOR;5
9;s8;t87;1;651;word;9;many;999;HF;POSAO;5
125;s8;t88;1;611;word;9;many;1180;HF;MESTO;5
95;s8;t89;1;661;word;9;many;1620;HF;NAROD;5
139;s8;t90;1;621;word;9;many;190;LF;TA^KA;5
47;s9;t1;1;761;word;1;few;302;LF;[APAT;5
41;s9;t2;1;701;word;1;few;320;LF;MR@NJA;6
72;s9;t4;1;791;word;1;few;414;HF;^E@NJA;6
10;s9;t5;1;972;word;1;few;424;HF;GRANJE;6
127;s9;t6;1;691;word;1;few;448;HF;DE^AK;5
90;s9;t7;1;591;word;1;few;453;HF;APRIL;5
58;s9;t8;1;621;word;1;few;720;HF;OSMEH;5
174;s9;t9;1;681;word;1;few;786;HF;CVE]E;5
146;s9;t10;1;821;word;1;few;1085;HF;LI[]E;5
162;s9;t11;1;551;word;2;few;254;LF;EKIPA;5
119;s9;t12;1;932;word;2;few;272;LF;BA[TA;5
94;s9;t13;1;771;word;2;few;317;LF;RADIO;5
155;s9;t14;1;661;word;2;few;320;LF;PESAK;5
78;s9;t15;1;591;word;2;few;374;LF;USPEH;5
151;s9;t16;1;551;word;2;few;422;HF;USLOV;5
100;s9;t17;1;631;word;2;few;894;HF;DINAR;5
20;s9;t18;1;711;word;2;few;1052;HF;ODBOR;5
43;s9;t19;1;641;word;2;few;1209;HF;SENKA;5
115;s9;t20;1;691;word;2;few;1452;HF;VLADA;5
124;s9;t21;1;691;word;3;few;334;LF;SUTON;5
18;s9;t22;1;671;word;3;few;335;LF;PU[KA;5
57;s9;t23;1;691;word;3;few;335;LF;SELJAK;6
180;s9;t24;1;641;word;3;few;348;LF;SPRAT;5
73;s9;t25;1;581;word;3;few;414;HF;MINUT;5
39;s9;t26;1;721;word;3;few;430;HF;VIDIK;5
28;s9;t27;1;1092;word;3;few;631;HF;MAGLA;5
183;s9;t28;1;581;word;3;few;657;HF;MIRIS;5
114;s9;t29;1;851;word;3;few;1470;HF;TRAVA;5
110;s9;t30;1;811;word;3;few;1847;HF;ULICA;5
158;s9;t31;1;781;word;4;medium;278;LF;ZANOS;5
161;s9;t32;1;691;word;4;medium;280;LF;OBZIR;5
181;s9;t33;1;611;word;4;medium;295;LF;PA@NJA;6
75;s9;t34;1;721;word;4;medium;314;LF;SVEST;5
21;s9;t35;1;591;word;4;medium;328;LF;POTOK;5
67;s9;t36;1;561;word;4;medium;375;LF;ZVONO;5
106;s9;t37;1;611;word;4;medium;484;HF;POMO];5
35;s9;t38;1;691;word;4;medium;831;HF;GRUDI;5
12;s9;t39;1;571;word;4;medium;1256;HF;GRANA;5
99;s9;t40;1;1242;word;4;medium;2274;HF;VETAR;5
19;s9;t41;1;1001;word;5;medium;262;LF;KOMAD;5
31;s9;t42;1;761;word;5;medium;270;LF;LOPTA;5
51;s9;t43;1;1302;word;5;medium;281;LF;IGRA^;5
62;s9;t44;1;691;word;5;medium;409;HF;PRI^A;5
165;s9;t45;1;771;word;5;medium;517;HF;SAVEZ;5
53;s9;t46;1;681;word;5;medium;521;HF;GRUPA;5
179;s9;t47;1;641;word;5;medium;828;HF;JESEN;5
48;s9;t48;1;681;word;5;medium;981;HF;KORAK;5
1;s9;t49;1;1051;word;5;medium;1011;HF;SRE]A;5
33;s9;t50;1;952;word;5;medium;1671;HF;PTICA;5
91;s9;t51;1;771;word;6;medium;148;LF;ORGAN;5
138;s9;t52;1;851;word;6;medium;164;LF;FORMA;5
64;s9;t53;1;681;word;6;medium;179;LF;BLATO;5
80;s9;t54;1;1072;word;6;medium;184;LF;KLUPA;5
171;s9;t55;1;881;word;6;medium;216;LF;PONOR;5
24;s9;t56;1;671;word;6;medium;255;LF;PODNE;5
93;s9;t57;1;590;word;6;medium;318;LF;STENA;5
42;s9;t58;1;771;word;6;medium;463;HF;IZVOR;5
83;s9;t59;1;711;word;6;medium;2365;HF;LJUBAV;6
6;s9;t60;1;691;word;6;medium;2626;HF;PESMA;5
50;s9;t61;1;691;word;7;many;118;LF;MOMAK;5
17;s9;t62;1;661;word;7;many;129;LF;BLAGO;5
109;s9;t63;1;772;word;7;many;134;LF;OSNOV;5
139;s9;t64;1;701;word;7;many;193;LF;STADO;5
65;s9;t65;1;621;word;7;many;326;LF;SLAVA;5
77;s9;t66;1;781;word;7;many;649;HF;KNJIGA;6
148;s9;t67;1;501;word;7;many;885;HF;[KOLA;5
92;s9;t68;1;781;word;7;many;1023;HF;BORBA;5
44;s9;t69;1;631;word;7;many;1565;HF;OBLAK;5
176;s9;t70;1;671;word;7;many;2984;HF;SUNCE;5
123;s9;t71;1;811;word;8;many;111;LF;REBRO;5
129;s9;t72;1;1312;word;8;many;116;LF;KONAC;5
144;s9;t73;1;811;word;8;many;135;LF;POTEZ;5
66;s9;t74;1;521;word;8;many;159;LF;JUNAK;5
160;s9;t75;1;1092;word;8;many;212;LF;LANAC;5
11;s9;t76;1;681;word;8;many;380;LF;ZLATO;5
71;s9;t77;1;671;word;8;many;416;HF;PISMO;5
107;s9;t78;1;591;word;8;many;431;HF;ZAKON;5
141;s9;t79;1;791;word;8;many;1460;HF;SNAGA;5
145;s9;t80;1;601;word;8;many;3952;HF;ZEMLJA;6
34;s9;t81;1;661;word;9;many;161;LF;KLASA;5
134;s9;t82;1;751;word;9;many;168;LF;PLO^A;5
164;s9;t83;1;782;word;9;many;307;LF;KARTA;5
149;s9;t84;1;551;word;9;many;328;LF;MRE@A;5
2;s9;t85;1;882;word;9;many;399;LF;STANJE;6
175;s9;t86;1;771;word;9;many;403;HF;GOVOR;5
105;s9;t87;1;731;word;9;many;999;HF;POSAO;5
147;s9;t88;1;551;word;9;many;1180;HF;MESTO;5
137;s9;t89;1;1112;word;9;many;1620;HF;NAROD;5
142;s9;t90;1;631;word;9;many;190;LF;TA^KA;5
